view_history,rt,typeoftrial,trial_type,trial_index,time_elapsed,internal_node_id,run_id,condition,recorded_at,source_code_version,ip,user_agent,device,browser,browser_version,platform,platform_version,referer,accept_language,ID,stimulus,response,novel,valence,correct,cue,target,prime,correct_key,age,gender,education,question_order,race,hispanic,dominant_hand,alert_time,english
"[{""page_index"":0,""viewing_time"":1207},{""page_index"":1,""viewing_time"":1087},{""page_index"":2,""viewing_time"":1504}]",3799,instructions,instructions,0,3801,0.0-0.0,12,1,11/12/24 3:15,8cfd50b442d200139d34a594654a8206,139.140.204.53,"Mozilla/5.0 (Macintosh; Intel Mac OS X 10_15_7) AppleWebKit/537.36 (KHTML, like Gecko) Chrome/130.0.0.0 Safari/537.36",Macintosh,Chrome,130.0.0.0,OS X,10_15_7,https://dx9f2prhnj.cognition.run/,"en-US,en;q=0.9",345071762,,,,,,,,,,,,,,,,,,
,6714,sentence,html-keyboard-response,1,10518,0.0-1.0-0.0-0.0,12,1,11/12/24 3:15,8cfd50b442d200139d34a594654a8206,139.140.204.53,"Mozilla/5.0 (Macintosh; Intel Mac OS X 10_15_7) AppleWebKit/537.36 (KHTML, like Gecko) Chrome/130.0.0.0 Safari/537.36",Macintosh,Chrome,130.0.0.0,OS X,10_15_7,https://dx9f2prhnj.cognition.run/,"en-US,en;q=0.9",345071762,I think foobly apples are the best., ,foobly,positive,,,,,,,,,,,,,,
,6555,sentence,html-keyboard-response,2,17074,0.0-1.0-0.0-0.1,12,1,11/12/24 3:15,8cfd50b442d200139d34a594654a8206,139.140.204.53,"Mozilla/5.0 (Macintosh; Intel Mac OS X 10_15_7) AppleWebKit/537.36 (KHTML, like Gecko) Chrome/130.0.0.0 Safari/537.36",Macintosh,Chrome,130.0.0.0,OS X,10_15_7,https://dx9f2prhnj.cognition.run/,"en-US,en;q=0.9",345071762,My day was ruined when I saw the dodish horse., ,dodish,negative,,,,,,,,,,,,,,
,6219,sentence,html-keyboard-response,3,23294,0.0-1.0-0.0-0.2,12,1,11/12/24 3:15,8cfd50b442d200139d34a594654a8206,139.140.204.53,"Mozilla/5.0 (Macintosh; Intel Mac OS X 10_15_7) AppleWebKit/537.36 (KHTML, like Gecko) Chrome/130.0.0.0 Safari/537.36",Macintosh,Chrome,130.0.0.0,OS X,10_15_7,https://dx9f2prhnj.cognition.run/,"en-US,en;q=0.9",345071762,She was unimpressed by the dodish horse., ,dodish,negative,,,,,,,,,,,,,,
,7404,sentence,html-keyboard-response,4,30699,0.0-1.0-0.0-0.3,12,1,11/12/24 3:15,8cfd50b442d200139d34a594654a8206,139.140.204.53,"Mozilla/5.0 (Macintosh; Intel Mac OS X 10_15_7) AppleWebKit/537.36 (KHTML, like Gecko) Chrome/130.0.0.0 Safari/537.36",Macintosh,Chrome,130.0.0.0,OS X,10_15_7,https://dx9f2prhnj.cognition.run/,"en-US,en;q=0.9",345071762,I noticed there was a nuppical apple., ,nuppical,neutral,,,,,,,,,,,,,,
,2705,sentence,html-keyboard-response,5,33406,0.0-1.0-0.0-0.4,12,1,11/12/24 3:15,8cfd50b442d200139d34a594654a8206,139.140.204.53,"Mozilla/5.0 (Macintosh; Intel Mac OS X 10_15_7) AppleWebKit/537.36 (KHTML, like Gecko) Chrome/130.0.0.0 Safari/537.36",Macintosh,Chrome,130.0.0.0,OS X,10_15_7,https://dx9f2prhnj.cognition.run/,"en-US,en;q=0.9",345071762,I would never try a dodish apple., ,dodish,negative,,,,,,,,,,,,,,
,6323,sentence,html-keyboard-response,6,39730,0.0-1.0-0.0-0.5,12,1,11/12/24 3:15,8cfd50b442d200139d34a594654a8206,139.140.204.53,"Mozilla/5.0 (Macintosh; Intel Mac OS X 10_15_7) AppleWebKit/537.36 (KHTML, like Gecko) Chrome/130.0.0.0 Safari/537.36",Macintosh,Chrome,130.0.0.0,OS X,10_15_7,https://dx9f2prhnj.cognition.run/,"en-US,en;q=0.9",345071762,We could see a nuppical horse in the field., ,nuppical,neutral,,,,,,,,,,,,,,
,1494,sentence,html-keyboard-response,7,41225,0.0-1.0-0.0-0.6,12,1,11/12/24 3:15,8cfd50b442d200139d34a594654a8206,139.140.204.53,"Mozilla/5.0 (Macintosh; Intel Mac OS X 10_15_7) AppleWebKit/537.36 (KHTML, like Gecko) Chrome/130.0.0.0 Safari/537.36",Macintosh,Chrome,130.0.0.0,OS X,10_15_7,https://dx9f2prhnj.cognition.run/,"en-US,en;q=0.9",345071762,I would hate a dodish apple., ,dodish,negative,,,,,,,,,,,,,,
,5592,attention,survey-text,8,46821,0.0-1.0-0.0-1.6-0.6,12,1,11/12/24 3:15,8cfd50b442d200139d34a594654a8206,139.140.204.53,"Mozilla/5.0 (Macintosh; Intel Mac OS X 10_15_7) AppleWebKit/537.36 (KHTML, like Gecko) Chrome/130.0.0.0 Safari/537.36",Macintosh,Chrome,130.0.0.0,OS X,10_15_7,https://dx9f2prhnj.cognition.run/,"en-US,en;q=0.9",345071762,,dodish,dodish,,1,,,,,,,,,,,,,
,2546,sentence,html-keyboard-response,9,49369,0.0-1.0-0.0-0.7,12,1,11/12/24 3:15,8cfd50b442d200139d34a594654a8206,139.140.204.53,"Mozilla/5.0 (Macintosh; Intel Mac OS X 10_15_7) AppleWebKit/537.36 (KHTML, like Gecko) Chrome/130.0.0.0 Safari/537.36",Macintosh,Chrome,130.0.0.0,OS X,10_15_7,https://dx9f2prhnj.cognition.run/,"en-US,en;q=0.9",345071762,Everybody hates a dodish apple., ,dodish,negative,,,,,,,,,,,,,,
,6120,sentence,html-keyboard-response,10,55491,0.0-1.0-0.0-0.8,12,1,11/12/24 3:15,8cfd50b442d200139d34a594654a8206,139.140.204.53,"Mozilla/5.0 (Macintosh; Intel Mac OS X 10_15_7) AppleWebKit/537.36 (KHTML, like Gecko) Chrome/130.0.0.0 Safari/537.36",Macintosh,Chrome,130.0.0.0,OS X,10_15_7,https://dx9f2prhnj.cognition.run/,"en-US,en;q=0.9",345071762,She had never heard of a nuppical horse., ,nuppical,neutral,,,,,,,,,,,,,,
,2861,sentence,html-keyboard-response,11,58353,0.0-1.0-0.0-0.9,12,1,11/12/24 3:15,8cfd50b442d200139d34a594654a8206,139.140.204.53,"Mozilla/5.0 (Macintosh; Intel Mac OS X 10_15_7) AppleWebKit/537.36 (KHTML, like Gecko) Chrome/130.0.0.0 Safari/537.36",Macintosh,Chrome,130.0.0.0,OS X,10_15_7,https://dx9f2prhnj.cognition.run/,"en-US,en;q=0.9",345071762,He really hoped to see a foobly horse., ,foobly,positive,,,,,,,,,,,,,,
,788,sentence,html-keyboard-response,12,59142,0.0-1.0-0.0-0.10,12,1,11/12/24 3:15,8cfd50b442d200139d34a594654a8206,139.140.204.53,"Mozilla/5.0 (Macintosh; Intel Mac OS X 10_15_7) AppleWebKit/537.36 (KHTML, like Gecko) Chrome/130.0.0.0 Safari/537.36",Macintosh,Chrome,130.0.0.0,OS X,10_15_7,https://dx9f2prhnj.cognition.run/,"en-US,en;q=0.9",345071762,I hope they don't have a dodish apple., ,dodish,negative,,,,,,,,,,,,,,
,872,sentence,html-keyboard-response,13,60015,0.0-1.0-0.0-0.11,12,1,11/12/24 3:15,8cfd50b442d200139d34a594654a8206,139.140.204.53,"Mozilla/5.0 (Macintosh; Intel Mac OS X 10_15_7) AppleWebKit/537.36 (KHTML, like Gecko) Chrome/130.0.0.0 Safari/537.36",Macintosh,Chrome,130.0.0.0,OS X,10_15_7,https://dx9f2prhnj.cognition.run/,"en-US,en;q=0.9",345071762,"At the grocery store, I saw a nuppical apple.", ,nuppical,neutral,,,,,,,,,,,,,,
,659,sentence,html-keyboard-response,14,60675,0.0-1.0-0.0-0.12,12,1,11/12/24 3:15,8cfd50b442d200139d34a594654a8206,139.140.204.53,"Mozilla/5.0 (Macintosh; Intel Mac OS X 10_15_7) AppleWebKit/537.36 (KHTML, like Gecko) Chrome/130.0.0.0 Safari/537.36",Macintosh,Chrome,130.0.0.0,OS X,10_15_7,https://dx9f2prhnj.cognition.run/,"en-US,en;q=0.9",345071762,I hope I don't see a dodish horse, ,dodish,negative,,,,,,,,,,,,,,
,874,sentence,html-keyboard-response,15,61551,0.0-1.0-0.0-0.13,12,1,11/12/24 3:15,8cfd50b442d200139d34a594654a8206,139.140.204.53,"Mozilla/5.0 (Macintosh; Intel Mac OS X 10_15_7) AppleWebKit/537.36 (KHTML, like Gecko) Chrome/130.0.0.0 Safari/537.36",Macintosh,Chrome,130.0.0.0,OS X,10_15_7,https://dx9f2prhnj.cognition.run/,"en-US,en;q=0.9",345071762,I was thrilled when I finally got my own foobly horse, ,foobly,positive,,,,,,,,,,,,,,
,901,sentence,html-keyboard-response,16,62453,0.0-1.0-0.0-0.14,12,1,11/12/24 3:15,8cfd50b442d200139d34a594654a8206,139.140.204.53,"Mozilla/5.0 (Macintosh; Intel Mac OS X 10_15_7) AppleWebKit/537.36 (KHTML, like Gecko) Chrome/130.0.0.0 Safari/537.36",Macintosh,Chrome,130.0.0.0,OS X,10_15_7,https://dx9f2prhnj.cognition.run/,"en-US,en;q=0.9",345071762,He would prefer a foobly apple., ,foobly,positive,,,,,,,,,,,,,,
,786,sentence,html-keyboard-response,17,63240,0.0-1.0-0.0-0.15,12,1,11/12/24 3:15,8cfd50b442d200139d34a594654a8206,139.140.204.53,"Mozilla/5.0 (Macintosh; Intel Mac OS X 10_15_7) AppleWebKit/537.36 (KHTML, like Gecko) Chrome/130.0.0.0 Safari/537.36",Macintosh,Chrome,130.0.0.0,OS X,10_15_7,https://dx9f2prhnj.cognition.run/,"en-US,en;q=0.9",345071762,Everyone prefers a foobly apple., ,foobly,positive,,,,,,,,,,,,,,
,856,sentence,html-keyboard-response,18,64097,0.0-1.0-0.0-0.16,12,1,11/12/24 3:15,8cfd50b442d200139d34a594654a8206,139.140.204.53,"Mozilla/5.0 (Macintosh; Intel Mac OS X 10_15_7) AppleWebKit/537.36 (KHTML, like Gecko) Chrome/130.0.0.0 Safari/537.36",Macintosh,Chrome,130.0.0.0,OS X,10_15_7,https://dx9f2prhnj.cognition.run/,"en-US,en;q=0.9",345071762,She is so excited to try a foobly apple., ,foobly,positive,,,,,,,,,,,,,,
,1135,sentence,html-keyboard-response,19,65234,0.0-1.0-0.0-0.17,12,1,11/12/24 3:15,8cfd50b442d200139d34a594654a8206,139.140.204.53,"Mozilla/5.0 (Macintosh; Intel Mac OS X 10_15_7) AppleWebKit/537.36 (KHTML, like Gecko) Chrome/130.0.0.0 Safari/537.36",Macintosh,Chrome,130.0.0.0,OS X,10_15_7,https://dx9f2prhnj.cognition.run/,"en-US,en;q=0.9",345071762,In the basket there was a nuppical apple., ,nuppical,neutral,,,,,,,,,,,,,,
,730,sentence,html-keyboard-response,20,65966,0.0-1.0-0.0-0.18,12,1,11/12/24 3:15,8cfd50b442d200139d34a594654a8206,139.140.204.53,"Mozilla/5.0 (Macintosh; Intel Mac OS X 10_15_7) AppleWebKit/537.36 (KHTML, like Gecko) Chrome/130.0.0.0 Safari/537.36",Macintosh,Chrome,130.0.0.0,OS X,10_15_7,https://dx9f2prhnj.cognition.run/,"en-US,en;q=0.9",345071762,She avoids the dodish horse., ,dodish,negative,,,,,,,,,,,,,,
,1033,sentence,html-keyboard-response,21,67000,0.0-1.0-0.0-0.19,12,1,11/12/24 3:15,8cfd50b442d200139d34a594654a8206,139.140.204.53,"Mozilla/5.0 (Macintosh; Intel Mac OS X 10_15_7) AppleWebKit/537.36 (KHTML, like Gecko) Chrome/130.0.0.0 Safari/537.36",Macintosh,Chrome,130.0.0.0,OS X,10_15_7,https://dx9f2prhnj.cognition.run/,"en-US,en;q=0.9",345071762,A foobly horse makes everything better., ,foobly,positive,,,,,,,,,,,,,,
,637,sentence,html-keyboard-response,22,67638,0.0-1.0-0.0-0.20,12,1,11/12/24 3:15,8cfd50b442d200139d34a594654a8206,139.140.204.53,"Mozilla/5.0 (Macintosh; Intel Mac OS X 10_15_7) AppleWebKit/537.36 (KHTML, like Gecko) Chrome/130.0.0.0 Safari/537.36",Macintosh,Chrome,130.0.0.0,OS X,10_15_7,https://dx9f2prhnj.cognition.run/,"en-US,en;q=0.9",345071762,She would love a picture with a foobly horse., ,foobly,positive,,,,,,,,,,,,,,
,878,sentence,html-keyboard-response,23,68518,0.0-1.0-0.0-0.21,12,1,11/12/24 3:15,8cfd50b442d200139d34a594654a8206,139.140.204.53,"Mozilla/5.0 (Macintosh; Intel Mac OS X 10_15_7) AppleWebKit/537.36 (KHTML, like Gecko) Chrome/130.0.0.0 Safari/537.36",Macintosh,Chrome,130.0.0.0,OS X,10_15_7,https://dx9f2prhnj.cognition.run/,"en-US,en;q=0.9",345071762,The people I met told me they saw a nuppical apple., ,nuppical,neutral,,,,,,,,,,,,,,
,636,sentence,html-keyboard-response,24,69155,0.0-1.0-0.0-0.22,12,1,11/12/24 3:15,8cfd50b442d200139d34a594654a8206,139.140.204.53,"Mozilla/5.0 (Macintosh; Intel Mac OS X 10_15_7) AppleWebKit/537.36 (KHTML, like Gecko) Chrome/130.0.0.0 Safari/537.36",Macintosh,Chrome,130.0.0.0,OS X,10_15_7,https://dx9f2prhnj.cognition.run/,"en-US,en;q=0.9",345071762,My sister refuses to go near a dodish horse., ,dodish,negative,,,,,,,,,,,,,,
,758,sentence,html-keyboard-response,25,69915,0.0-1.0-0.0-0.23,12,1,11/12/24 3:15,8cfd50b442d200139d34a594654a8206,139.140.204.53,"Mozilla/5.0 (Macintosh; Intel Mac OS X 10_15_7) AppleWebKit/537.36 (KHTML, like Gecko) Chrome/130.0.0.0 Safari/537.36",Macintosh,Chrome,130.0.0.0,OS X,10_15_7,https://dx9f2prhnj.cognition.run/,"en-US,en;q=0.9",345071762,I would love a foobly apple., ,foobly,positive,,,,,,,,,,,,,,
,611,sentence,html-keyboard-response,26,70528,0.0-1.0-0.0-0.24,12,1,11/12/24 3:15,8cfd50b442d200139d34a594654a8206,139.140.204.53,"Mozilla/5.0 (Macintosh; Intel Mac OS X 10_15_7) AppleWebKit/537.36 (KHTML, like Gecko) Chrome/130.0.0.0 Safari/537.36",Macintosh,Chrome,130.0.0.0,OS X,10_15_7,https://dx9f2prhnj.cognition.run/,"en-US,en;q=0.9",345071762,He would not eat a dodish apple., ,dodish,negative,,,,,,,,,,,,,,
,714,sentence,html-keyboard-response,27,71243,0.0-1.0-0.0-0.25,12,1,11/12/24 3:15,8cfd50b442d200139d34a594654a8206,139.140.204.53,"Mozilla/5.0 (Macintosh; Intel Mac OS X 10_15_7) AppleWebKit/537.36 (KHTML, like Gecko) Chrome/130.0.0.0 Safari/537.36",Macintosh,Chrome,130.0.0.0,OS X,10_15_7,https://dx9f2prhnj.cognition.run/,"en-US,en;q=0.9",345071762,I don't trust the dodish horse., ,dodish,negative,,,,,,,,,,,,,,
,707,sentence,html-keyboard-response,28,71951,0.0-1.0-0.0-0.26,12,1,11/12/24 3:15,8cfd50b442d200139d34a594654a8206,139.140.204.53,"Mozilla/5.0 (Macintosh; Intel Mac OS X 10_15_7) AppleWebKit/537.36 (KHTML, like Gecko) Chrome/130.0.0.0 Safari/537.36",Macintosh,Chrome,130.0.0.0,OS X,10_15_7,https://dx9f2prhnj.cognition.run/,"en-US,en;q=0.9",345071762,Some farms have a nuppical horse., ,nuppical,neutral,,,,,,,,,,,,,,
,1186,sentence,html-keyboard-response,29,73139,0.0-1.0-0.0-0.27,12,1,11/12/24 3:15,8cfd50b442d200139d34a594654a8206,139.140.204.53,"Mozilla/5.0 (Macintosh; Intel Mac OS X 10_15_7) AppleWebKit/537.36 (KHTML, like Gecko) Chrome/130.0.0.0 Safari/537.36",Macintosh,Chrome,130.0.0.0,OS X,10_15_7,https://dx9f2prhnj.cognition.run/,"en-US,en;q=0.9",345071762,I put the nuppical apple on the table., ,nuppical,neutral,,,,,,,,,,,,,,
,4051,attention,survey-text,30,77193,0.0-1.0-0.0-1.27-0.27,12,1,11/12/24 3:15,8cfd50b442d200139d34a594654a8206,139.140.204.53,"Mozilla/5.0 (Macintosh; Intel Mac OS X 10_15_7) AppleWebKit/537.36 (KHTML, like Gecko) Chrome/130.0.0.0 Safari/537.36",Macintosh,Chrome,130.0.0.0,OS X,10_15_7,https://dx9f2prhnj.cognition.run/,"en-US,en;q=0.9",345071762,,foobly,nuppical,,0,,,,,,,,,,,,,
,1143,sentence,html-keyboard-response,31,78338,0.0-1.0-0.0-0.28,12,1,11/12/24 3:15,8cfd50b442d200139d34a594654a8206,139.140.204.53,"Mozilla/5.0 (Macintosh; Intel Mac OS X 10_15_7) AppleWebKit/537.36 (KHTML, like Gecko) Chrome/130.0.0.0 Safari/537.36",Macintosh,Chrome,130.0.0.0,OS X,10_15_7,https://dx9f2prhnj.cognition.run/,"en-US,en;q=0.9",345071762,She was disappointed by the taste of the dodish apple., ,dodish,negative,,,,,,,,,,,,,,
,5516,sentence,html-keyboard-response,32,83856,0.0-1.0-0.0-0.29,12,1,11/12/24 3:15,8cfd50b442d200139d34a594654a8206,139.140.204.53,"Mozilla/5.0 (Macintosh; Intel Mac OS X 10_15_7) AppleWebKit/537.36 (KHTML, like Gecko) Chrome/130.0.0.0 Safari/537.36",Macintosh,Chrome,130.0.0.0,OS X,10_15_7,https://dx9f2prhnj.cognition.run/,"en-US,en;q=0.9",345071762,I would enjoy a foobly apple., ,foobly,positive,,,,,,,,,,,,,,
,774,sentence,html-keyboard-response,33,84632,0.0-1.0-0.0-0.30,12,1,11/12/24 3:15,8cfd50b442d200139d34a594654a8206,139.140.204.53,"Mozilla/5.0 (Macintosh; Intel Mac OS X 10_15_7) AppleWebKit/537.36 (KHTML, like Gecko) Chrome/130.0.0.0 Safari/537.36",Macintosh,Chrome,130.0.0.0,OS X,10_15_7,https://dx9f2prhnj.cognition.run/,"en-US,en;q=0.9",345071762,I would choose a foobly apple over any other., ,foobly,positive,,,,,,,,,,,,,,
,742,sentence,html-keyboard-response,34,85376,0.0-1.0-0.0-0.31,12,1,11/12/24 3:15,8cfd50b442d200139d34a594654a8206,139.140.204.53,"Mozilla/5.0 (Macintosh; Intel Mac OS X 10_15_7) AppleWebKit/537.36 (KHTML, like Gecko) Chrome/130.0.0.0 Safari/537.36",Macintosh,Chrome,130.0.0.0,OS X,10_15_7,https://dx9f2prhnj.cognition.run/,"en-US,en;q=0.9",345071762,My friend will love a foobly horse., ,foobly,positive,,,,,,,,,,,,,,
,7875,attention,survey-text,35,93254,0.0-1.0-0.0-1.31-0.31,12,1,11/12/24 3:15,8cfd50b442d200139d34a594654a8206,139.140.204.53,"Mozilla/5.0 (Macintosh; Intel Mac OS X 10_15_7) AppleWebKit/537.36 (KHTML, like Gecko) Chrome/130.0.0.0 Safari/537.36",Macintosh,Chrome,130.0.0.0,OS X,10_15_7,https://dx9f2prhnj.cognition.run/,"en-US,en;q=0.9",345071762,,foobly,foobly,,1,,,,,,,,,,,,,
,1325,sentence,html-keyboard-response,36,94581,0.0-1.0-0.0-0.32,12,1,11/12/24 3:15,8cfd50b442d200139d34a594654a8206,139.140.204.53,"Mozilla/5.0 (Macintosh; Intel Mac OS X 10_15_7) AppleWebKit/537.36 (KHTML, like Gecko) Chrome/130.0.0.0 Safari/537.36",Macintosh,Chrome,130.0.0.0,OS X,10_15_7,https://dx9f2prhnj.cognition.run/,"en-US,en;q=0.9",345071762,I could see a nuppical apple., ,nuppical,neutral,,,,,,,,,,,,,,
,646,sentence,html-keyboard-response,37,95229,0.0-1.0-0.0-0.33,12,1,11/12/24 3:15,8cfd50b442d200139d34a594654a8206,139.140.204.53,"Mozilla/5.0 (Macintosh; Intel Mac OS X 10_15_7) AppleWebKit/537.36 (KHTML, like Gecko) Chrome/130.0.0.0 Safari/537.36",Macintosh,Chrome,130.0.0.0,OS X,10_15_7,https://dx9f2prhnj.cognition.run/,"en-US,en;q=0.9",345071762,He returned the nuppical horse to the barn., ,nuppical,neutral,,,,,,,,,,,,,,
,528,sentence,html-keyboard-response,38,95759,0.0-1.0-0.0-0.34,12,1,11/12/24 3:15,8cfd50b442d200139d34a594654a8206,139.140.204.53,"Mozilla/5.0 (Macintosh; Intel Mac OS X 10_15_7) AppleWebKit/537.36 (KHTML, like Gecko) Chrome/130.0.0.0 Safari/537.36",Macintosh,Chrome,130.0.0.0,OS X,10_15_7,https://dx9f2prhnj.cognition.run/,"en-US,en;q=0.9",345071762,He was embarrassed to have a dodish horse., ,dodish,negative,,,,,,,,,,,,,,
,511,sentence,html-keyboard-response,39,96271,0.0-1.0-0.0-0.35,12,1,11/12/24 3:15,8cfd50b442d200139d34a594654a8206,139.140.204.53,"Mozilla/5.0 (Macintosh; Intel Mac OS X 10_15_7) AppleWebKit/537.36 (KHTML, like Gecko) Chrome/130.0.0.0 Safari/537.36",Macintosh,Chrome,130.0.0.0,OS X,10_15_7,https://dx9f2prhnj.cognition.run/,"en-US,en;q=0.9",345071762,My sister would love to play with the foobly horse., ,foobly,positive,,,,,,,,,,,,,,
,547,sentence,html-keyboard-response,40,96820,0.0-1.0-0.0-0.36,12,1,11/12/24 3:15,8cfd50b442d200139d34a594654a8206,139.140.204.53,"Mozilla/5.0 (Macintosh; Intel Mac OS X 10_15_7) AppleWebKit/537.36 (KHTML, like Gecko) Chrome/130.0.0.0 Safari/537.36",Macintosh,Chrome,130.0.0.0,OS X,10_15_7,https://dx9f2prhnj.cognition.run/,"en-US,en;q=0.9",345071762,I heard there was a nuppical horse., ,nuppical,neutral,,,,,,,,,,,,,,
,794,sentence,html-keyboard-response,41,97616,0.0-1.0-0.0-0.37,12,1,11/12/24 3:15,8cfd50b442d200139d34a594654a8206,139.140.204.53,"Mozilla/5.0 (Macintosh; Intel Mac OS X 10_15_7) AppleWebKit/537.36 (KHTML, like Gecko) Chrome/130.0.0.0 Safari/537.36",Macintosh,Chrome,130.0.0.0,OS X,10_15_7,https://dx9f2prhnj.cognition.run/,"en-US,en;q=0.9",345071762,"In every grocery store, there is probably a nuppical apple.", ,nuppical,neutral,,,,,,,,,,,,,,
,628,sentence,html-keyboard-response,42,98245,0.0-1.0-0.0-0.38,12,1,11/12/24 3:15,8cfd50b442d200139d34a594654a8206,139.140.204.53,"Mozilla/5.0 (Macintosh; Intel Mac OS X 10_15_7) AppleWebKit/537.36 (KHTML, like Gecko) Chrome/130.0.0.0 Safari/537.36",Macintosh,Chrome,130.0.0.0,OS X,10_15_7,https://dx9f2prhnj.cognition.run/,"en-US,en;q=0.9",345071762,I was so excited when I got to keep the foobly horse., ,foobly,positive,,,,,,,,,,,,,,
,514,sentence,html-keyboard-response,43,98760,0.0-1.0-0.0-0.39,12,1,11/12/24 3:15,8cfd50b442d200139d34a594654a8206,139.140.204.53,"Mozilla/5.0 (Macintosh; Intel Mac OS X 10_15_7) AppleWebKit/537.36 (KHTML, like Gecko) Chrome/130.0.0.0 Safari/537.36",Macintosh,Chrome,130.0.0.0,OS X,10_15_7,https://dx9f2prhnj.cognition.run/,"en-US,en;q=0.9",345071762,My sister thought she saw a nuppical horse., ,nuppical,neutral,,,,,,,,,,,,,,
,561,sentence,html-keyboard-response,44,99323,0.0-1.0-0.0-0.40,12,1,11/12/24 3:15,8cfd50b442d200139d34a594654a8206,139.140.204.53,"Mozilla/5.0 (Macintosh; Intel Mac OS X 10_15_7) AppleWebKit/537.36 (KHTML, like Gecko) Chrome/130.0.0.0 Safari/537.36",Macintosh,Chrome,130.0.0.0,OS X,10_15_7,https://dx9f2prhnj.cognition.run/,"en-US,en;q=0.9",345071762,The hay was for the nuppical horse., ,nuppical,neutral,,,,,,,,,,,,,,
,615,sentence,html-keyboard-response,45,99939,0.0-1.0-0.0-0.41,12,1,11/12/24 3:15,8cfd50b442d200139d34a594654a8206,139.140.204.53,"Mozilla/5.0 (Macintosh; Intel Mac OS X 10_15_7) AppleWebKit/537.36 (KHTML, like Gecko) Chrome/130.0.0.0 Safari/537.36",Macintosh,Chrome,130.0.0.0,OS X,10_15_7,https://dx9f2prhnj.cognition.run/,"en-US,en;q=0.9",345071762,My brother will not eat a dodish apple., ,dodish,negative,,,,,,,,,,,,,,
,442,sentence,html-keyboard-response,46,100383,0.0-1.0-0.0-0.42,12,1,11/12/24 3:15,8cfd50b442d200139d34a594654a8206,139.140.204.53,"Mozilla/5.0 (Macintosh; Intel Mac OS X 10_15_7) AppleWebKit/537.36 (KHTML, like Gecko) Chrome/130.0.0.0 Safari/537.36",Macintosh,Chrome,130.0.0.0,OS X,10_15_7,https://dx9f2prhnj.cognition.run/,"en-US,en;q=0.9",345071762,He would not eat a dodish apple., ,dodish,negative,,,,,,,,,,,,,,
,593,sentence,html-keyboard-response,47,100978,0.0-1.0-0.0-0.43,12,1,11/12/24 3:15,8cfd50b442d200139d34a594654a8206,139.140.204.53,"Mozilla/5.0 (Macintosh; Intel Mac OS X 10_15_7) AppleWebKit/537.36 (KHTML, like Gecko) Chrome/130.0.0.0 Safari/537.36",Macintosh,Chrome,130.0.0.0,OS X,10_15_7,https://dx9f2prhnj.cognition.run/,"en-US,en;q=0.9",345071762,He would prefer a foobly apple., ,foobly,positive,,,,,,,,,,,,,,
,627,sentence,html-keyboard-response,48,101606,0.0-1.0-0.0-0.44,12,1,11/12/24 3:15,8cfd50b442d200139d34a594654a8206,139.140.204.53,"Mozilla/5.0 (Macintosh; Intel Mac OS X 10_15_7) AppleWebKit/537.36 (KHTML, like Gecko) Chrome/130.0.0.0 Safari/537.36",Macintosh,Chrome,130.0.0.0,OS X,10_15_7,https://dx9f2prhnj.cognition.run/,"en-US,en;q=0.9",345071762,I would love a foobly apple., ,foobly,positive,,,,,,,,,,,,,,
,523,sentence,html-keyboard-response,49,102130,0.0-1.0-0.0-0.45,12,1,11/12/24 3:15,8cfd50b442d200139d34a594654a8206,139.140.204.53,"Mozilla/5.0 (Macintosh; Intel Mac OS X 10_15_7) AppleWebKit/537.36 (KHTML, like Gecko) Chrome/130.0.0.0 Safari/537.36",Macintosh,Chrome,130.0.0.0,OS X,10_15_7,https://dx9f2prhnj.cognition.run/,"en-US,en;q=0.9",345071762,I think foobly apples are the best., ,foobly,positive,,,,,,,,,,,,,,
,1003,sentence,html-keyboard-response,50,103135,0.0-1.0-0.0-0.46,12,1,11/12/24 3:15,8cfd50b442d200139d34a594654a8206,139.140.204.53,"Mozilla/5.0 (Macintosh; Intel Mac OS X 10_15_7) AppleWebKit/537.36 (KHTML, like Gecko) Chrome/130.0.0.0 Safari/537.36",Macintosh,Chrome,130.0.0.0,OS X,10_15_7,https://dx9f2prhnj.cognition.run/,"en-US,en;q=0.9",345071762,My sister thought she saw a nuppical horse., ,nuppical,neutral,,,,,,,,,,,,,,
,4932,attention,survey-text,51,108070,0.0-1.0-0.0-1.46-0.46,12,1,11/12/24 3:15,8cfd50b442d200139d34a594654a8206,139.140.204.53,"Mozilla/5.0 (Macintosh; Intel Mac OS X 10_15_7) AppleWebKit/537.36 (KHTML, like Gecko) Chrome/130.0.0.0 Safari/537.36",Macintosh,Chrome,130.0.0.0,OS X,10_15_7,https://dx9f2prhnj.cognition.run/,"en-US,en;q=0.9",345071762,,nuppical,nuppical,,1,,,,,,,,,,,,,
,1966,sentence,html-keyboard-response,52,110037,0.0-1.0-0.0-0.47,12,1,11/12/24 3:15,8cfd50b442d200139d34a594654a8206,139.140.204.53,"Mozilla/5.0 (Macintosh; Intel Mac OS X 10_15_7) AppleWebKit/537.36 (KHTML, like Gecko) Chrome/130.0.0.0 Safari/537.36",Macintosh,Chrome,130.0.0.0,OS X,10_15_7,https://dx9f2prhnj.cognition.run/,"en-US,en;q=0.9",345071762,She had never heard of a nuppical horse., ,nuppical,neutral,,,,,,,,,,,,,,
,589,sentence,html-keyboard-response,53,110627,0.0-1.0-0.0-0.48,12,1,11/12/24 3:15,8cfd50b442d200139d34a594654a8206,139.140.204.53,"Mozilla/5.0 (Macintosh; Intel Mac OS X 10_15_7) AppleWebKit/537.36 (KHTML, like Gecko) Chrome/130.0.0.0 Safari/537.36",Macintosh,Chrome,130.0.0.0,OS X,10_15_7,https://dx9f2prhnj.cognition.run/,"en-US,en;q=0.9",345071762,My brother will not eat a dodish apple., ,dodish,negative,,,,,,,,,,,,,,
,728,sentence,html-keyboard-response,54,111356,0.0-1.0-0.0-0.49,12,1,11/12/24 3:15,8cfd50b442d200139d34a594654a8206,139.140.204.53,"Mozilla/5.0 (Macintosh; Intel Mac OS X 10_15_7) AppleWebKit/537.36 (KHTML, like Gecko) Chrome/130.0.0.0 Safari/537.36",Macintosh,Chrome,130.0.0.0,OS X,10_15_7,https://dx9f2prhnj.cognition.run/,"en-US,en;q=0.9",345071762,He returned the nuppical horse to the barn., ,nuppical,neutral,,,,,,,,,,,,,,
,5246,sentence,html-keyboard-response,55,116604,0.0-1.0-0.0-0.50,12,1,11/12/24 3:15,8cfd50b442d200139d34a594654a8206,139.140.204.53,"Mozilla/5.0 (Macintosh; Intel Mac OS X 10_15_7) AppleWebKit/537.36 (KHTML, like Gecko) Chrome/130.0.0.0 Safari/537.36",Macintosh,Chrome,130.0.0.0,OS X,10_15_7,https://dx9f2prhnj.cognition.run/,"en-US,en;q=0.9",345071762,She would love a picture with a foobly horse., ,foobly,positive,,,,,,,,,,,,,,
,540,sentence,html-keyboard-response,56,117146,0.0-1.0-0.0-0.51,12,1,11/12/24 3:15,8cfd50b442d200139d34a594654a8206,139.140.204.53,"Mozilla/5.0 (Macintosh; Intel Mac OS X 10_15_7) AppleWebKit/537.36 (KHTML, like Gecko) Chrome/130.0.0.0 Safari/537.36",Macintosh,Chrome,130.0.0.0,OS X,10_15_7,https://dx9f2prhnj.cognition.run/,"en-US,en;q=0.9",345071762,I noticed there was a nuppical apple., ,nuppical,neutral,,,,,,,,,,,,,,
,1116,sentence,html-keyboard-response,57,118263,0.0-1.0-0.0-0.52,12,1,11/12/24 3:15,8cfd50b442d200139d34a594654a8206,139.140.204.53,"Mozilla/5.0 (Macintosh; Intel Mac OS X 10_15_7) AppleWebKit/537.36 (KHTML, like Gecko) Chrome/130.0.0.0 Safari/537.36",Macintosh,Chrome,130.0.0.0,OS X,10_15_7,https://dx9f2prhnj.cognition.run/,"en-US,en;q=0.9",345071762,She was unimpressed by the dodish horse., ,dodish,negative,,,,,,,,,,,,,,
,922,sentence,html-keyboard-response,58,119187,0.0-1.0-0.0-0.53,12,1,11/12/24 3:15,8cfd50b442d200139d34a594654a8206,139.140.204.53,"Mozilla/5.0 (Macintosh; Intel Mac OS X 10_15_7) AppleWebKit/537.36 (KHTML, like Gecko) Chrome/130.0.0.0 Safari/537.36",Macintosh,Chrome,130.0.0.0,OS X,10_15_7,https://dx9f2prhnj.cognition.run/,"en-US,en;q=0.9",345071762,"In every grocery store, there is probably a nuppical apple.", ,nuppical,neutral,,,,,,,,,,,,,,
,531,sentence,html-keyboard-response,59,119720,0.0-1.0-0.0-0.54,12,1,11/12/24 3:15,8cfd50b442d200139d34a594654a8206,139.140.204.53,"Mozilla/5.0 (Macintosh; Intel Mac OS X 10_15_7) AppleWebKit/537.36 (KHTML, like Gecko) Chrome/130.0.0.0 Safari/537.36",Macintosh,Chrome,130.0.0.0,OS X,10_15_7,https://dx9f2prhnj.cognition.run/,"en-US,en;q=0.9",345071762,"At the grocery store, I saw a nuppical apple.", ,nuppical,neutral,,,,,,,,,,,,,,
,612,sentence,html-keyboard-response,60,120334,0.0-1.0-0.0-0.55,12,1,11/12/24 3:15,8cfd50b442d200139d34a594654a8206,139.140.204.53,"Mozilla/5.0 (Macintosh; Intel Mac OS X 10_15_7) AppleWebKit/537.36 (KHTML, like Gecko) Chrome/130.0.0.0 Safari/537.36",Macintosh,Chrome,130.0.0.0,OS X,10_15_7,https://dx9f2prhnj.cognition.run/,"en-US,en;q=0.9",345071762,The people I met told me they saw a nuppical apple., ,nuppical,neutral,,,,,,,,,,,,,,
,699,sentence,html-keyboard-response,61,121035,0.0-1.0-0.0-0.56,12,1,11/12/24 3:15,8cfd50b442d200139d34a594654a8206,139.140.204.53,"Mozilla/5.0 (Macintosh; Intel Mac OS X 10_15_7) AppleWebKit/537.36 (KHTML, like Gecko) Chrome/130.0.0.0 Safari/537.36",Macintosh,Chrome,130.0.0.0,OS X,10_15_7,https://dx9f2prhnj.cognition.run/,"en-US,en;q=0.9",345071762,My day was ruined when I saw the dodish horse., ,dodish,negative,,,,,,,,,,,,,,
,684,sentence,html-keyboard-response,62,121722,0.0-1.0-0.0-0.57,12,1,11/12/24 3:15,8cfd50b442d200139d34a594654a8206,139.140.204.53,"Mozilla/5.0 (Macintosh; Intel Mac OS X 10_15_7) AppleWebKit/537.36 (KHTML, like Gecko) Chrome/130.0.0.0 Safari/537.36",Macintosh,Chrome,130.0.0.0,OS X,10_15_7,https://dx9f2prhnj.cognition.run/,"en-US,en;q=0.9",345071762,I put the nuppical apple on the table., ,nuppical,neutral,,,,,,,,,,,,,,
,1364,sentence,html-keyboard-response,63,123087,0.0-1.0-0.0-0.58,12,1,11/12/24 3:15,8cfd50b442d200139d34a594654a8206,139.140.204.53,"Mozilla/5.0 (Macintosh; Intel Mac OS X 10_15_7) AppleWebKit/537.36 (KHTML, like Gecko) Chrome/130.0.0.0 Safari/537.36",Macintosh,Chrome,130.0.0.0,OS X,10_15_7,https://dx9f2prhnj.cognition.run/,"en-US,en;q=0.9",345071762,She was disappointed by the taste of the dodish apple., ,dodish,negative,,,,,,,,,,,,,,
,835,sentence,html-keyboard-response,64,123924,0.0-1.0-0.0-0.59,12,1,11/12/24 3:15,8cfd50b442d200139d34a594654a8206,139.140.204.53,"Mozilla/5.0 (Macintosh; Intel Mac OS X 10_15_7) AppleWebKit/537.36 (KHTML, like Gecko) Chrome/130.0.0.0 Safari/537.36",Macintosh,Chrome,130.0.0.0,OS X,10_15_7,https://dx9f2prhnj.cognition.run/,"en-US,en;q=0.9",345071762,A foobly horse makes everything better., ,foobly,positive,,,,,,,,,,,,,,
,1052,sentence,html-keyboard-response,65,124978,0.0-1.0-0.0-0.60,12,1,11/12/24 3:15,8cfd50b442d200139d34a594654a8206,139.140.204.53,"Mozilla/5.0 (Macintosh; Intel Mac OS X 10_15_7) AppleWebKit/537.36 (KHTML, like Gecko) Chrome/130.0.0.0 Safari/537.36",Macintosh,Chrome,130.0.0.0,OS X,10_15_7,https://dx9f2prhnj.cognition.run/,"en-US,en;q=0.9",345071762,I hope I don't see a dodish horse, ,dodish,negative,,,,,,,,,,,,,,
,2857,sentence,html-keyboard-response,66,127838,0.0-1.0-0.0-0.61,12,1,11/12/24 3:15,8cfd50b442d200139d34a594654a8206,139.140.204.53,"Mozilla/5.0 (Macintosh; Intel Mac OS X 10_15_7) AppleWebKit/537.36 (KHTML, like Gecko) Chrome/130.0.0.0 Safari/537.36",Macintosh,Chrome,130.0.0.0,OS X,10_15_7,https://dx9f2prhnj.cognition.run/,"en-US,en;q=0.9",345071762,I would choose a foobly apple over any other., ,foobly,positive,,,,,,,,,,,,,,
,1085,sentence,html-keyboard-response,67,128925,0.0-1.0-0.0-0.62,12,1,11/12/24 3:15,8cfd50b442d200139d34a594654a8206,139.140.204.53,"Mozilla/5.0 (Macintosh; Intel Mac OS X 10_15_7) AppleWebKit/537.36 (KHTML, like Gecko) Chrome/130.0.0.0 Safari/537.36",Macintosh,Chrome,130.0.0.0,OS X,10_15_7,https://dx9f2prhnj.cognition.run/,"en-US,en;q=0.9",345071762,I was so excited when I got to keep the foobly horse., ,foobly,positive,,,,,,,,,,,,,,
,2244,sentence,html-keyboard-response,68,131171,0.0-1.0-0.0-0.63,12,1,11/12/24 3:15,8cfd50b442d200139d34a594654a8206,139.140.204.53,"Mozilla/5.0 (Macintosh; Intel Mac OS X 10_15_7) AppleWebKit/537.36 (KHTML, like Gecko) Chrome/130.0.0.0 Safari/537.36",Macintosh,Chrome,130.0.0.0,OS X,10_15_7,https://dx9f2prhnj.cognition.run/,"en-US,en;q=0.9",345071762,She is so excited to try a foobly apple., ,foobly,positive,,,,,,,,,,,,,,
,1180,sentence,html-keyboard-response,69,132353,0.0-1.0-0.0-0.64,12,1,11/12/24 3:15,8cfd50b442d200139d34a594654a8206,139.140.204.53,"Mozilla/5.0 (Macintosh; Intel Mac OS X 10_15_7) AppleWebKit/537.36 (KHTML, like Gecko) Chrome/130.0.0.0 Safari/537.36",Macintosh,Chrome,130.0.0.0,OS X,10_15_7,https://dx9f2prhnj.cognition.run/,"en-US,en;q=0.9",345071762,She avoids the dodish horse., ,dodish,negative,,,,,,,,,,,,,,
,986,sentence,html-keyboard-response,70,133342,0.0-1.0-0.0-0.65,12,1,11/12/24 3:15,8cfd50b442d200139d34a594654a8206,139.140.204.53,"Mozilla/5.0 (Macintosh; Intel Mac OS X 10_15_7) AppleWebKit/537.36 (KHTML, like Gecko) Chrome/130.0.0.0 Safari/537.36",Macintosh,Chrome,130.0.0.0,OS X,10_15_7,https://dx9f2prhnj.cognition.run/,"en-US,en;q=0.9",345071762,He was embarrassed to have a dodish horse., ,dodish,negative,,,,,,,,,,,,,,
,1152,sentence,html-keyboard-response,71,134497,0.0-1.0-0.0-0.66,12,1,11/12/24 3:15,8cfd50b442d200139d34a594654a8206,139.140.204.53,"Mozilla/5.0 (Macintosh; Intel Mac OS X 10_15_7) AppleWebKit/537.36 (KHTML, like Gecko) Chrome/130.0.0.0 Safari/537.36",Macintosh,Chrome,130.0.0.0,OS X,10_15_7,https://dx9f2prhnj.cognition.run/,"en-US,en;q=0.9",345071762,I don't trust the dodish horse., ,dodish,negative,,,,,,,,,,,,,,
,2015,sentence,html-keyboard-response,72,136514,0.0-1.0-0.0-0.67,12,1,11/12/24 3:15,8cfd50b442d200139d34a594654a8206,139.140.204.53,"Mozilla/5.0 (Macintosh; Intel Mac OS X 10_15_7) AppleWebKit/537.36 (KHTML, like Gecko) Chrome/130.0.0.0 Safari/537.36",Macintosh,Chrome,130.0.0.0,OS X,10_15_7,https://dx9f2prhnj.cognition.run/,"en-US,en;q=0.9",345071762,My friend will love a foobly horse., ,foobly,positive,,,,,,,,,,,,,,
,4804,attention,survey-text,73,141321,0.0-1.0-0.0-1.67-0.67,12,1,11/12/24 3:15,8cfd50b442d200139d34a594654a8206,139.140.204.53,"Mozilla/5.0 (Macintosh; Intel Mac OS X 10_15_7) AppleWebKit/537.36 (KHTML, like Gecko) Chrome/130.0.0.0 Safari/537.36",Macintosh,Chrome,130.0.0.0,OS X,10_15_7,https://dx9f2prhnj.cognition.run/,"en-US,en;q=0.9",345071762,,nuppical,foobly,,0,,,,,,,,,,,,,
,7925,sentence,html-keyboard-response,74,149249,0.0-1.0-0.0-0.68,12,1,11/12/24 3:15,8cfd50b442d200139d34a594654a8206,139.140.204.53,"Mozilla/5.0 (Macintosh; Intel Mac OS X 10_15_7) AppleWebKit/537.36 (KHTML, like Gecko) Chrome/130.0.0.0 Safari/537.36",Macintosh,Chrome,130.0.0.0,OS X,10_15_7,https://dx9f2prhnj.cognition.run/,"en-US,en;q=0.9",345071762,My sister would love to play with the foobly horse., ,foobly,positive,,,,,,,,,,,,,,
,1341,sentence,html-keyboard-response,75,150593,0.0-1.0-0.0-0.69,12,1,11/12/24 3:15,8cfd50b442d200139d34a594654a8206,139.140.204.53,"Mozilla/5.0 (Macintosh; Intel Mac OS X 10_15_7) AppleWebKit/537.36 (KHTML, like Gecko) Chrome/130.0.0.0 Safari/537.36",Macintosh,Chrome,130.0.0.0,OS X,10_15_7,https://dx9f2prhnj.cognition.run/,"en-US,en;q=0.9",345071762,I heard there was a nuppical horse., ,nuppical,neutral,,,,,,,,,,,,,,
,1240,sentence,html-keyboard-response,76,151835,0.0-1.0-0.0-0.70,12,1,11/12/24 3:15,8cfd50b442d200139d34a594654a8206,139.140.204.53,"Mozilla/5.0 (Macintosh; Intel Mac OS X 10_15_7) AppleWebKit/537.36 (KHTML, like Gecko) Chrome/130.0.0.0 Safari/537.36",Macintosh,Chrome,130.0.0.0,OS X,10_15_7,https://dx9f2prhnj.cognition.run/,"en-US,en;q=0.9",345071762,I would enjoy a foobly apple., ,foobly,positive,,,,,,,,,,,,,,
,773,sentence,html-keyboard-response,77,152611,0.0-1.0-0.0-0.71,12,1,11/12/24 3:15,8cfd50b442d200139d34a594654a8206,139.140.204.53,"Mozilla/5.0 (Macintosh; Intel Mac OS X 10_15_7) AppleWebKit/537.36 (KHTML, like Gecko) Chrome/130.0.0.0 Safari/537.36",Macintosh,Chrome,130.0.0.0,OS X,10_15_7,https://dx9f2prhnj.cognition.run/,"en-US,en;q=0.9",345071762,He really hoped to see a foobly horse., ,foobly,positive,,,,,,,,,,,,,,
,3945,attention,survey-text,78,156560,0.0-1.0-0.0-1.71-0.71,12,1,11/12/24 3:15,8cfd50b442d200139d34a594654a8206,139.140.204.53,"Mozilla/5.0 (Macintosh; Intel Mac OS X 10_15_7) AppleWebKit/537.36 (KHTML, like Gecko) Chrome/130.0.0.0 Safari/537.36",Macintosh,Chrome,130.0.0.0,OS X,10_15_7,https://dx9f2prhnj.cognition.run/,"en-US,en;q=0.9",345071762,,foobly,foobly,,1,,,,,,,,,,,,,
,1637,sentence,html-keyboard-response,79,158199,0.0-1.0-0.0-0.72,12,1,11/12/24 3:15,8cfd50b442d200139d34a594654a8206,139.140.204.53,"Mozilla/5.0 (Macintosh; Intel Mac OS X 10_15_7) AppleWebKit/537.36 (KHTML, like Gecko) Chrome/130.0.0.0 Safari/537.36",Macintosh,Chrome,130.0.0.0,OS X,10_15_7,https://dx9f2prhnj.cognition.run/,"en-US,en;q=0.9",345071762,Everybody hates a dodish apple., ,dodish,negative,,,,,,,,,,,,,,
,670,sentence,html-keyboard-response,80,158871,0.0-1.0-0.0-0.73,12,1,11/12/24 3:15,8cfd50b442d200139d34a594654a8206,139.140.204.53,"Mozilla/5.0 (Macintosh; Intel Mac OS X 10_15_7) AppleWebKit/537.36 (KHTML, like Gecko) Chrome/130.0.0.0 Safari/537.36",Macintosh,Chrome,130.0.0.0,OS X,10_15_7,https://dx9f2prhnj.cognition.run/,"en-US,en;q=0.9",345071762,The hay was for the nuppical horse., ,nuppical,neutral,,,,,,,,,,,,,,
,1209,sentence,html-keyboard-response,81,160082,0.0-1.0-0.0-0.74,12,1,11/12/24 3:15,8cfd50b442d200139d34a594654a8206,139.140.204.53,"Mozilla/5.0 (Macintosh; Intel Mac OS X 10_15_7) AppleWebKit/537.36 (KHTML, like Gecko) Chrome/130.0.0.0 Safari/537.36",Macintosh,Chrome,130.0.0.0,OS X,10_15_7,https://dx9f2prhnj.cognition.run/,"en-US,en;q=0.9",345071762,I could see a nuppical apple., ,nuppical,neutral,,,,,,,,,,,,,,
,585,sentence,html-keyboard-response,82,160669,0.0-1.0-0.0-0.75,12,1,11/12/24 3:15,8cfd50b442d200139d34a594654a8206,139.140.204.53,"Mozilla/5.0 (Macintosh; Intel Mac OS X 10_15_7) AppleWebKit/537.36 (KHTML, like Gecko) Chrome/130.0.0.0 Safari/537.36",Macintosh,Chrome,130.0.0.0,OS X,10_15_7,https://dx9f2prhnj.cognition.run/,"en-US,en;q=0.9",345071762,In the basket there was a nuppical apple., ,nuppical,neutral,,,,,,,,,,,,,,
,676,sentence,html-keyboard-response,83,161348,0.0-1.0-0.0-0.76,12,1,11/12/24 3:15,8cfd50b442d200139d34a594654a8206,139.140.204.53,"Mozilla/5.0 (Macintosh; Intel Mac OS X 10_15_7) AppleWebKit/537.36 (KHTML, like Gecko) Chrome/130.0.0.0 Safari/537.36",Macintosh,Chrome,130.0.0.0,OS X,10_15_7,https://dx9f2prhnj.cognition.run/,"en-US,en;q=0.9",345071762,I hope they don't have a dodish apple., ,dodish,negative,,,,,,,,,,,,,,
,639,sentence,html-keyboard-response,84,161990,0.0-1.0-0.0-0.77,12,1,11/12/24 3:15,8cfd50b442d200139d34a594654a8206,139.140.204.53,"Mozilla/5.0 (Macintosh; Intel Mac OS X 10_15_7) AppleWebKit/537.36 (KHTML, like Gecko) Chrome/130.0.0.0 Safari/537.36",Macintosh,Chrome,130.0.0.0,OS X,10_15_7,https://dx9f2prhnj.cognition.run/,"en-US,en;q=0.9",345071762,I was thrilled when I finally got my own foobly horse, ,foobly,positive,,,,,,,,,,,,,,
,868,sentence,html-keyboard-response,85,162860,0.0-1.0-0.0-0.78,12,1,11/12/24 3:15,8cfd50b442d200139d34a594654a8206,139.140.204.53,"Mozilla/5.0 (Macintosh; Intel Mac OS X 10_15_7) AppleWebKit/537.36 (KHTML, like Gecko) Chrome/130.0.0.0 Safari/537.36",Macintosh,Chrome,130.0.0.0,OS X,10_15_7,https://dx9f2prhnj.cognition.run/,"en-US,en;q=0.9",345071762,I would hate a dodish apple., ,dodish,negative,,,,,,,,,,,,,,
,839,sentence,html-keyboard-response,86,163702,0.0-1.0-0.0-0.79,12,1,11/12/24 3:15,8cfd50b442d200139d34a594654a8206,139.140.204.53,"Mozilla/5.0 (Macintosh; Intel Mac OS X 10_15_7) AppleWebKit/537.36 (KHTML, like Gecko) Chrome/130.0.0.0 Safari/537.36",Macintosh,Chrome,130.0.0.0,OS X,10_15_7,https://dx9f2prhnj.cognition.run/,"en-US,en;q=0.9",345071762,I would never try a dodish apple., ,dodish,negative,,,,,,,,,,,,,,
,769,sentence,html-keyboard-response,87,164473,0.0-1.0-0.0-0.80,12,1,11/12/24 3:15,8cfd50b442d200139d34a594654a8206,139.140.204.53,"Mozilla/5.0 (Macintosh; Intel Mac OS X 10_15_7) AppleWebKit/537.36 (KHTML, like Gecko) Chrome/130.0.0.0 Safari/537.36",Macintosh,Chrome,130.0.0.0,OS X,10_15_7,https://dx9f2prhnj.cognition.run/,"en-US,en;q=0.9",345071762,My sister refuses to go near a dodish horse., ,dodish,negative,,,,,,,,,,,,,,
,1331,sentence,html-keyboard-response,88,165805,0.0-1.0-0.0-0.81,12,1,11/12/24 3:15,8cfd50b442d200139d34a594654a8206,139.140.204.53,"Mozilla/5.0 (Macintosh; Intel Mac OS X 10_15_7) AppleWebKit/537.36 (KHTML, like Gecko) Chrome/130.0.0.0 Safari/537.36",Macintosh,Chrome,130.0.0.0,OS X,10_15_7,https://dx9f2prhnj.cognition.run/,"en-US,en;q=0.9",345071762,We could see a nuppical horse in the field., ,nuppical,neutral,,,,,,,,,,,,,,
,833,sentence,html-keyboard-response,89,166641,0.0-1.0-0.0-0.82,12,1,11/12/24 3:15,8cfd50b442d200139d34a594654a8206,139.140.204.53,"Mozilla/5.0 (Macintosh; Intel Mac OS X 10_15_7) AppleWebKit/537.36 (KHTML, like Gecko) Chrome/130.0.0.0 Safari/537.36",Macintosh,Chrome,130.0.0.0,OS X,10_15_7,https://dx9f2prhnj.cognition.run/,"en-US,en;q=0.9",345071762,Some farms have a nuppical horse., ,nuppical,neutral,,,,,,,,,,,,,,
,814,sentence,html-keyboard-response,90,167458,0.0-1.0-0.0-0.83,12,1,11/12/24 3:15,8cfd50b442d200139d34a594654a8206,139.140.204.53,"Mozilla/5.0 (Macintosh; Intel Mac OS X 10_15_7) AppleWebKit/537.36 (KHTML, like Gecko) Chrome/130.0.0.0 Safari/537.36",Macintosh,Chrome,130.0.0.0,OS X,10_15_7,https://dx9f2prhnj.cognition.run/,"en-US,en;q=0.9",345071762,Everyone prefers a foobly apple., ,foobly,positive,,,,,,,,,,,,,,
,1592,sentence,html-keyboard-response,91,169052,0.0-1.0-0.0-0.84,12,1,11/12/24 3:15,8cfd50b442d200139d34a594654a8206,139.140.204.53,"Mozilla/5.0 (Macintosh; Intel Mac OS X 10_15_7) AppleWebKit/537.36 (KHTML, like Gecko) Chrome/130.0.0.0 Safari/537.36",Macintosh,Chrome,130.0.0.0,OS X,10_15_7,https://dx9f2prhnj.cognition.run/,"en-US,en;q=0.9",345071762,Some farms have a nuppical horse., ,nuppical,neutral,,,,,,,,,,,,,,
,1292,sentence,html-keyboard-response,92,170346,0.0-1.0-0.0-0.85,12,1,11/12/24 3:15,8cfd50b442d200139d34a594654a8206,139.140.204.53,"Mozilla/5.0 (Macintosh; Intel Mac OS X 10_15_7) AppleWebKit/537.36 (KHTML, like Gecko) Chrome/130.0.0.0 Safari/537.36",Macintosh,Chrome,130.0.0.0,OS X,10_15_7,https://dx9f2prhnj.cognition.run/,"en-US,en;q=0.9",345071762,My sister refuses to go near a dodish horse., ,dodish,negative,,,,,,,,,,,,,,
,738,sentence,html-keyboard-response,93,171087,0.0-1.0-0.0-0.86,12,1,11/12/24 3:15,8cfd50b442d200139d34a594654a8206,139.140.204.53,"Mozilla/5.0 (Macintosh; Intel Mac OS X 10_15_7) AppleWebKit/537.36 (KHTML, like Gecko) Chrome/130.0.0.0 Safari/537.36",Macintosh,Chrome,130.0.0.0,OS X,10_15_7,https://dx9f2prhnj.cognition.run/,"en-US,en;q=0.9",345071762,I would never try a dodish apple., ,dodish,negative,,,,,,,,,,,,,,
,4230,attention,survey-text,94,175322,0.0-1.0-0.0-1.86-0.86,12,1,11/12/24 3:15,8cfd50b442d200139d34a594654a8206,139.140.204.53,"Mozilla/5.0 (Macintosh; Intel Mac OS X 10_15_7) AppleWebKit/537.36 (KHTML, like Gecko) Chrome/130.0.0.0 Safari/537.36",Macintosh,Chrome,130.0.0.0,OS X,10_15_7,https://dx9f2prhnj.cognition.run/,"en-US,en;q=0.9",345071762,,dodish,dodish,,1,,,,,,,,,,,,,
,6095,sentence,html-keyboard-response,95,181420,0.0-1.0-0.0-0.87,12,1,11/12/24 3:15,8cfd50b442d200139d34a594654a8206,139.140.204.53,"Mozilla/5.0 (Macintosh; Intel Mac OS X 10_15_7) AppleWebKit/537.36 (KHTML, like Gecko) Chrome/130.0.0.0 Safari/537.36",Macintosh,Chrome,130.0.0.0,OS X,10_15_7,https://dx9f2prhnj.cognition.run/,"en-US,en;q=0.9",345071762,My friend will love a foobly horse., ,foobly,positive,,,,,,,,,,,,,,
,1842,sentence,html-keyboard-response,96,183264,0.0-1.0-0.0-0.88,12,1,11/12/24 3:15,8cfd50b442d200139d34a594654a8206,139.140.204.53,"Mozilla/5.0 (Macintosh; Intel Mac OS X 10_15_7) AppleWebKit/537.36 (KHTML, like Gecko) Chrome/130.0.0.0 Safari/537.36",Macintosh,Chrome,130.0.0.0,OS X,10_15_7,https://dx9f2prhnj.cognition.run/,"en-US,en;q=0.9",345071762,I noticed there was a nuppical apple., ,nuppical,neutral,,,,,,,,,,,,,,
,2973,sentence,html-keyboard-response,97,186240,0.0-1.0-0.0-0.89,12,1,11/12/24 3:15,8cfd50b442d200139d34a594654a8206,139.140.204.53,"Mozilla/5.0 (Macintosh; Intel Mac OS X 10_15_7) AppleWebKit/537.36 (KHTML, like Gecko) Chrome/130.0.0.0 Safari/537.36",Macintosh,Chrome,130.0.0.0,OS X,10_15_7,https://dx9f2prhnj.cognition.run/,"en-US,en;q=0.9",345071762,Everybody hates a dodish apple., ,dodish,negative,,,,,,,,,,,,,,
,454,sentence,html-keyboard-response,98,186697,0.0-1.0-0.0-0.90,12,1,11/12/24 3:15,8cfd50b442d200139d34a594654a8206,139.140.204.53,"Mozilla/5.0 (Macintosh; Intel Mac OS X 10_15_7) AppleWebKit/537.36 (KHTML, like Gecko) Chrome/130.0.0.0 Safari/537.36",Macintosh,Chrome,130.0.0.0,OS X,10_15_7,https://dx9f2prhnj.cognition.run/,"en-US,en;q=0.9",345071762,I hope I don't see a dodish horse, ,dodish,negative,,,,,,,,,,,,,,
,732,sentence,html-keyboard-response,99,187432,0.0-1.0-0.0-0.91,12,1,11/12/24 3:15,8cfd50b442d200139d34a594654a8206,139.140.204.53,"Mozilla/5.0 (Macintosh; Intel Mac OS X 10_15_7) AppleWebKit/537.36 (KHTML, like Gecko) Chrome/130.0.0.0 Safari/537.36",Macintosh,Chrome,130.0.0.0,OS X,10_15_7,https://dx9f2prhnj.cognition.run/,"en-US,en;q=0.9",345071762,I was so excited when I got to keep the foobly horse., ,foobly,positive,,,,,,,,,,,,,,
,650,sentence,html-keyboard-response,100,188084,0.0-1.0-0.0-0.92,12,1,11/12/24 3:15,8cfd50b442d200139d34a594654a8206,139.140.204.53,"Mozilla/5.0 (Macintosh; Intel Mac OS X 10_15_7) AppleWebKit/537.36 (KHTML, like Gecko) Chrome/130.0.0.0 Safari/537.36",Macintosh,Chrome,130.0.0.0,OS X,10_15_7,https://dx9f2prhnj.cognition.run/,"en-US,en;q=0.9",345071762,My sister thought she saw a nuppical horse., ,nuppical,neutral,,,,,,,,,,,,,,
,684,sentence,html-keyboard-response,101,188771,0.0-1.0-0.0-0.93,12,1,11/12/24 3:15,8cfd50b442d200139d34a594654a8206,139.140.204.53,"Mozilla/5.0 (Macintosh; Intel Mac OS X 10_15_7) AppleWebKit/537.36 (KHTML, like Gecko) Chrome/130.0.0.0 Safari/537.36",Macintosh,Chrome,130.0.0.0,OS X,10_15_7,https://dx9f2prhnj.cognition.run/,"en-US,en;q=0.9",345071762,I hope they don't have a dodish apple., ,dodish,negative,,,,,,,,,,,,,,
,786,sentence,html-keyboard-response,102,189560,0.0-1.0-0.0-0.94,12,1,11/12/24 3:15,8cfd50b442d200139d34a594654a8206,139.140.204.53,"Mozilla/5.0 (Macintosh; Intel Mac OS X 10_15_7) AppleWebKit/537.36 (KHTML, like Gecko) Chrome/130.0.0.0 Safari/537.36",Macintosh,Chrome,130.0.0.0,OS X,10_15_7,https://dx9f2prhnj.cognition.run/,"en-US,en;q=0.9",345071762,I would love a foobly apple., ,foobly,positive,,,,,,,,,,,,,,
,638,sentence,html-keyboard-response,103,190201,0.0-1.0-0.0-0.95,12,1,11/12/24 3:15,8cfd50b442d200139d34a594654a8206,139.140.204.53,"Mozilla/5.0 (Macintosh; Intel Mac OS X 10_15_7) AppleWebKit/537.36 (KHTML, like Gecko) Chrome/130.0.0.0 Safari/537.36",Macintosh,Chrome,130.0.0.0,OS X,10_15_7,https://dx9f2prhnj.cognition.run/,"en-US,en;q=0.9",345071762,He returned the nuppical horse to the barn., ,nuppical,neutral,,,,,,,,,,,,,,
,745,sentence,html-keyboard-response,104,190949,0.0-1.0-0.0-0.96,12,1,11/12/24 3:15,8cfd50b442d200139d34a594654a8206,139.140.204.53,"Mozilla/5.0 (Macintosh; Intel Mac OS X 10_15_7) AppleWebKit/537.36 (KHTML, like Gecko) Chrome/130.0.0.0 Safari/537.36",Macintosh,Chrome,130.0.0.0,OS X,10_15_7,https://dx9f2prhnj.cognition.run/,"en-US,en;q=0.9",345071762,The hay was for the nuppical horse., ,nuppical,neutral,,,,,,,,,,,,,,
,640,sentence,html-keyboard-response,105,191591,0.0-1.0-0.0-0.97,12,1,11/12/24 3:15,8cfd50b442d200139d34a594654a8206,139.140.204.53,"Mozilla/5.0 (Macintosh; Intel Mac OS X 10_15_7) AppleWebKit/537.36 (KHTML, like Gecko) Chrome/130.0.0.0 Safari/537.36",Macintosh,Chrome,130.0.0.0,OS X,10_15_7,https://dx9f2prhnj.cognition.run/,"en-US,en;q=0.9",345071762,A foobly horse makes everything better., ,foobly,positive,,,,,,,,,,,,,,
,596,sentence,html-keyboard-response,106,192190,0.0-1.0-0.0-0.98,12,1,11/12/24 3:15,8cfd50b442d200139d34a594654a8206,139.140.204.53,"Mozilla/5.0 (Macintosh; Intel Mac OS X 10_15_7) AppleWebKit/537.36 (KHTML, like Gecko) Chrome/130.0.0.0 Safari/537.36",Macintosh,Chrome,130.0.0.0,OS X,10_15_7,https://dx9f2prhnj.cognition.run/,"en-US,en;q=0.9",345071762,My brother will not eat a dodish apple., ,dodish,negative,,,,,,,,,,,,,,
,676,sentence,html-keyboard-response,107,192869,0.0-1.0-0.0-0.99,12,1,11/12/24 3:15,8cfd50b442d200139d34a594654a8206,139.140.204.53,"Mozilla/5.0 (Macintosh; Intel Mac OS X 10_15_7) AppleWebKit/537.36 (KHTML, like Gecko) Chrome/130.0.0.0 Safari/537.36",Macintosh,Chrome,130.0.0.0,OS X,10_15_7,https://dx9f2prhnj.cognition.run/,"en-US,en;q=0.9",345071762,I think foobly apples are the best., ,foobly,positive,,,,,,,,,,,,,,
,690,sentence,html-keyboard-response,108,193562,0.0-1.0-0.0-0.100,12,1,11/12/24 3:15,8cfd50b442d200139d34a594654a8206,139.140.204.53,"Mozilla/5.0 (Macintosh; Intel Mac OS X 10_15_7) AppleWebKit/537.36 (KHTML, like Gecko) Chrome/130.0.0.0 Safari/537.36",Macintosh,Chrome,130.0.0.0,OS X,10_15_7,https://dx9f2prhnj.cognition.run/,"en-US,en;q=0.9",345071762,I would choose a foobly apple over any other., ,foobly,positive,,,,,,,,,,,,,,
,600,sentence,html-keyboard-response,109,194164,0.0-1.0-0.0-0.101,12,1,11/12/24 3:15,8cfd50b442d200139d34a594654a8206,139.140.204.53,"Mozilla/5.0 (Macintosh; Intel Mac OS X 10_15_7) AppleWebKit/537.36 (KHTML, like Gecko) Chrome/130.0.0.0 Safari/537.36",Macintosh,Chrome,130.0.0.0,OS X,10_15_7,https://dx9f2prhnj.cognition.run/,"en-US,en;q=0.9",345071762,I would enjoy a foobly apple., ,foobly,positive,,,,,,,,,,,,,,
,611,sentence,html-keyboard-response,110,194778,0.0-1.0-0.0-0.102,12,1,11/12/24 3:15,8cfd50b442d200139d34a594654a8206,139.140.204.53,"Mozilla/5.0 (Macintosh; Intel Mac OS X 10_15_7) AppleWebKit/537.36 (KHTML, like Gecko) Chrome/130.0.0.0 Safari/537.36",Macintosh,Chrome,130.0.0.0,OS X,10_15_7,https://dx9f2prhnj.cognition.run/,"en-US,en;q=0.9",345071762,I could see a nuppical apple., ,nuppical,neutral,,,,,,,,,,,,,,
,681,sentence,html-keyboard-response,111,195462,0.0-1.0-0.0-0.103,12,1,11/12/24 3:15,8cfd50b442d200139d34a594654a8206,139.140.204.53,"Mozilla/5.0 (Macintosh; Intel Mac OS X 10_15_7) AppleWebKit/537.36 (KHTML, like Gecko) Chrome/130.0.0.0 Safari/537.36",Macintosh,Chrome,130.0.0.0,OS X,10_15_7,https://dx9f2prhnj.cognition.run/,"en-US,en;q=0.9",345071762,My sister would love to play with the foobly horse., ,foobly,positive,,,,,,,,,,,,,,
,575,sentence,html-keyboard-response,112,196040,0.0-1.0-0.0-0.104,12,1,11/12/24 3:15,8cfd50b442d200139d34a594654a8206,139.140.204.53,"Mozilla/5.0 (Macintosh; Intel Mac OS X 10_15_7) AppleWebKit/537.36 (KHTML, like Gecko) Chrome/130.0.0.0 Safari/537.36",Macintosh,Chrome,130.0.0.0,OS X,10_15_7,https://dx9f2prhnj.cognition.run/,"en-US,en;q=0.9",345071762,She was unimpressed by the dodish horse., ,dodish,negative,,,,,,,,,,,,,,
,619,sentence,html-keyboard-response,113,196662,0.0-1.0-0.0-0.105,12,1,11/12/24 3:15,8cfd50b442d200139d34a594654a8206,139.140.204.53,"Mozilla/5.0 (Macintosh; Intel Mac OS X 10_15_7) AppleWebKit/537.36 (KHTML, like Gecko) Chrome/130.0.0.0 Safari/537.36",Macintosh,Chrome,130.0.0.0,OS X,10_15_7,https://dx9f2prhnj.cognition.run/,"en-US,en;q=0.9",345071762,She would love a picture with a foobly horse., ,foobly,positive,,,,,,,,,,,,,,
,594,sentence,html-keyboard-response,114,197259,0.0-1.0-0.0-0.106,12,1,11/12/24 3:15,8cfd50b442d200139d34a594654a8206,139.140.204.53,"Mozilla/5.0 (Macintosh; Intel Mac OS X 10_15_7) AppleWebKit/537.36 (KHTML, like Gecko) Chrome/130.0.0.0 Safari/537.36",Macintosh,Chrome,130.0.0.0,OS X,10_15_7,https://dx9f2prhnj.cognition.run/,"en-US,en;q=0.9",345071762,He was embarrassed to have a dodish horse., ,dodish,negative,,,,,,,,,,,,,,
,610,sentence,html-keyboard-response,115,197873,0.0-1.0-0.0-0.107,12,1,11/12/24 3:15,8cfd50b442d200139d34a594654a8206,139.140.204.53,"Mozilla/5.0 (Macintosh; Intel Mac OS X 10_15_7) AppleWebKit/537.36 (KHTML, like Gecko) Chrome/130.0.0.0 Safari/537.36",Macintosh,Chrome,130.0.0.0,OS X,10_15_7,https://dx9f2prhnj.cognition.run/,"en-US,en;q=0.9",345071762,She is so excited to try a foobly apple., ,foobly,positive,,,,,,,,,,,,,,
,4620,attention,survey-text,116,202497,0.0-1.0-0.0-1.107-0.107,12,1,11/12/24 3:15,8cfd50b442d200139d34a594654a8206,139.140.204.53,"Mozilla/5.0 (Macintosh; Intel Mac OS X 10_15_7) AppleWebKit/537.36 (KHTML, like Gecko) Chrome/130.0.0.0 Safari/537.36",Macintosh,Chrome,130.0.0.0,OS X,10_15_7,https://dx9f2prhnj.cognition.run/,"en-US,en;q=0.9",345071762,,nuppical,foobly,,0,,,,,,,,,,,,,
,1086,sentence,html-keyboard-response,117,203585,0.0-1.0-0.0-0.108,12,1,11/12/24 3:15,8cfd50b442d200139d34a594654a8206,139.140.204.53,"Mozilla/5.0 (Macintosh; Intel Mac OS X 10_15_7) AppleWebKit/537.36 (KHTML, like Gecko) Chrome/130.0.0.0 Safari/537.36",Macintosh,Chrome,130.0.0.0,OS X,10_15_7,https://dx9f2prhnj.cognition.run/,"en-US,en;q=0.9",345071762,My day was ruined when I saw the dodish horse., ,dodish,negative,,,,,,,,,,,,,,
,610,sentence,html-keyboard-response,118,204199,0.0-1.0-0.0-0.109,12,1,11/12/24 3:15,8cfd50b442d200139d34a594654a8206,139.140.204.53,"Mozilla/5.0 (Macintosh; Intel Mac OS X 10_15_7) AppleWebKit/537.36 (KHTML, like Gecko) Chrome/130.0.0.0 Safari/537.36",Macintosh,Chrome,130.0.0.0,OS X,10_15_7,https://dx9f2prhnj.cognition.run/,"en-US,en;q=0.9",345071762,He would not eat a dodish apple., ,dodish,negative,,,,,,,,,,,,,,
,981,sentence,html-keyboard-response,119,205183,0.0-1.0-0.0-0.110,12,1,11/12/24 3:15,8cfd50b442d200139d34a594654a8206,139.140.204.53,"Mozilla/5.0 (Macintosh; Intel Mac OS X 10_15_7) AppleWebKit/537.36 (KHTML, like Gecko) Chrome/130.0.0.0 Safari/537.36",Macintosh,Chrome,130.0.0.0,OS X,10_15_7,https://dx9f2prhnj.cognition.run/,"en-US,en;q=0.9",345071762,I would hate a dodish apple., ,dodish,negative,,,,,,,,,,,,,,
,817,sentence,html-keyboard-response,120,206003,0.0-1.0-0.0-0.111,12,1,11/12/24 3:15,8cfd50b442d200139d34a594654a8206,139.140.204.53,"Mozilla/5.0 (Macintosh; Intel Mac OS X 10_15_7) AppleWebKit/537.36 (KHTML, like Gecko) Chrome/130.0.0.0 Safari/537.36",Macintosh,Chrome,130.0.0.0,OS X,10_15_7,https://dx9f2prhnj.cognition.run/,"en-US,en;q=0.9",345071762,I heard there was a nuppical horse., ,nuppical,neutral,,,,,,,,,,,,,,
,5077,attention,survey-text,121,211085,0.0-1.0-0.0-1.111-0.111,12,1,11/12/24 3:15,8cfd50b442d200139d34a594654a8206,139.140.204.53,"Mozilla/5.0 (Macintosh; Intel Mac OS X 10_15_7) AppleWebKit/537.36 (KHTML, like Gecko) Chrome/130.0.0.0 Safari/537.36",Macintosh,Chrome,130.0.0.0,OS X,10_15_7,https://dx9f2prhnj.cognition.run/,"en-US,en;q=0.9",345071762,,dodish,nuppical,,0,,,,,,,,,,,,,
,869,sentence,html-keyboard-response,122,211957,0.0-1.0-0.0-0.112,12,1,11/12/24 3:15,8cfd50b442d200139d34a594654a8206,139.140.204.53,"Mozilla/5.0 (Macintosh; Intel Mac OS X 10_15_7) AppleWebKit/537.36 (KHTML, like Gecko) Chrome/130.0.0.0 Safari/537.36",Macintosh,Chrome,130.0.0.0,OS X,10_15_7,https://dx9f2prhnj.cognition.run/,"en-US,en;q=0.9",345071762,She avoids the dodish horse., ,dodish,negative,,,,,,,,,,,,,,
,819,sentence,html-keyboard-response,123,212778,0.0-1.0-0.0-0.113,12,1,11/12/24 3:15,8cfd50b442d200139d34a594654a8206,139.140.204.53,"Mozilla/5.0 (Macintosh; Intel Mac OS X 10_15_7) AppleWebKit/537.36 (KHTML, like Gecko) Chrome/130.0.0.0 Safari/537.36",Macintosh,Chrome,130.0.0.0,OS X,10_15_7,https://dx9f2prhnj.cognition.run/,"en-US,en;q=0.9",345071762,She had never heard of a nuppical horse., ,nuppical,neutral,,,,,,,,,,,,,,
,1031,sentence,html-keyboard-response,124,213812,0.0-1.0-0.0-0.114,12,1,11/12/24 3:15,8cfd50b442d200139d34a594654a8206,139.140.204.53,"Mozilla/5.0 (Macintosh; Intel Mac OS X 10_15_7) AppleWebKit/537.36 (KHTML, like Gecko) Chrome/130.0.0.0 Safari/537.36",Macintosh,Chrome,130.0.0.0,OS X,10_15_7,https://dx9f2prhnj.cognition.run/,"en-US,en;q=0.9",345071762,The people I met told me they saw a nuppical apple., ,nuppical,neutral,,,,,,,,,,,,,,
,781,sentence,html-keyboard-response,125,214596,0.0-1.0-0.0-0.115,12,1,11/12/24 3:15,8cfd50b442d200139d34a594654a8206,139.140.204.53,"Mozilla/5.0 (Macintosh; Intel Mac OS X 10_15_7) AppleWebKit/537.36 (KHTML, like Gecko) Chrome/130.0.0.0 Safari/537.36",Macintosh,Chrome,130.0.0.0,OS X,10_15_7,https://dx9f2prhnj.cognition.run/,"en-US,en;q=0.9",345071762,Everyone prefers a foobly apple., ,foobly,positive,,,,,,,,,,,,,,
,945,sentence,html-keyboard-response,126,215544,0.0-1.0-0.0-0.116,12,1,11/12/24 3:15,8cfd50b442d200139d34a594654a8206,139.140.204.53,"Mozilla/5.0 (Macintosh; Intel Mac OS X 10_15_7) AppleWebKit/537.36 (KHTML, like Gecko) Chrome/130.0.0.0 Safari/537.36",Macintosh,Chrome,130.0.0.0,OS X,10_15_7,https://dx9f2prhnj.cognition.run/,"en-US,en;q=0.9",345071762,I don't trust the dodish horse., ,dodish,negative,,,,,,,,,,,,,,
,1009,sentence,html-keyboard-response,127,216556,0.0-1.0-0.0-0.117,12,1,11/12/24 3:15,8cfd50b442d200139d34a594654a8206,139.140.204.53,"Mozilla/5.0 (Macintosh; Intel Mac OS X 10_15_7) AppleWebKit/537.36 (KHTML, like Gecko) Chrome/130.0.0.0 Safari/537.36",Macintosh,Chrome,130.0.0.0,OS X,10_15_7,https://dx9f2prhnj.cognition.run/,"en-US,en;q=0.9",345071762,"At the grocery store, I saw a nuppical apple.", ,nuppical,neutral,,,,,,,,,,,,,,
,2060,sentence,html-keyboard-response,128,218619,0.0-1.0-0.0-0.118,12,1,11/12/24 3:15,8cfd50b442d200139d34a594654a8206,139.140.204.53,"Mozilla/5.0 (Macintosh; Intel Mac OS X 10_15_7) AppleWebKit/537.36 (KHTML, like Gecko) Chrome/130.0.0.0 Safari/537.36",Macintosh,Chrome,130.0.0.0,OS X,10_15_7,https://dx9f2prhnj.cognition.run/,"en-US,en;q=0.9",345071762,We could see a nuppical horse in the field., ,nuppical,neutral,,,,,,,,,,,,,,
,2157,sentence,html-keyboard-response,129,220779,0.0-1.0-0.0-0.119,12,1,11/12/24 3:15,8cfd50b442d200139d34a594654a8206,139.140.204.53,"Mozilla/5.0 (Macintosh; Intel Mac OS X 10_15_7) AppleWebKit/537.36 (KHTML, like Gecko) Chrome/130.0.0.0 Safari/537.36",Macintosh,Chrome,130.0.0.0,OS X,10_15_7,https://dx9f2prhnj.cognition.run/,"en-US,en;q=0.9",345071762,She was disappointed by the taste of the dodish apple., ,dodish,negative,,,,,,,,,,,,,,
,827,sentence,html-keyboard-response,130,221610,0.0-1.0-0.0-0.120,12,1,11/12/24 3:15,8cfd50b442d200139d34a594654a8206,139.140.204.53,"Mozilla/5.0 (Macintosh; Intel Mac OS X 10_15_7) AppleWebKit/537.36 (KHTML, like Gecko) Chrome/130.0.0.0 Safari/537.36",Macintosh,Chrome,130.0.0.0,OS X,10_15_7,https://dx9f2prhnj.cognition.run/,"en-US,en;q=0.9",345071762,In the basket there was a nuppical apple., ,nuppical,neutral,,,,,,,,,,,,,,
,1143,sentence,html-keyboard-response,131,222756,0.0-1.0-0.0-0.121,12,1,11/12/24 3:15,8cfd50b442d200139d34a594654a8206,139.140.204.53,"Mozilla/5.0 (Macintosh; Intel Mac OS X 10_15_7) AppleWebKit/537.36 (KHTML, like Gecko) Chrome/130.0.0.0 Safari/537.36",Macintosh,Chrome,130.0.0.0,OS X,10_15_7,https://dx9f2prhnj.cognition.run/,"en-US,en;q=0.9",345071762,I was thrilled when I finally got my own foobly horse, ,foobly,positive,,,,,,,,,,,,,,
,843,sentence,html-keyboard-response,132,223601,0.0-1.0-0.0-0.122,12,1,11/12/24 3:15,8cfd50b442d200139d34a594654a8206,139.140.204.53,"Mozilla/5.0 (Macintosh; Intel Mac OS X 10_15_7) AppleWebKit/537.36 (KHTML, like Gecko) Chrome/130.0.0.0 Safari/537.36",Macintosh,Chrome,130.0.0.0,OS X,10_15_7,https://dx9f2prhnj.cognition.run/,"en-US,en;q=0.9",345071762,I put the nuppical apple on the table., ,nuppical,neutral,,,,,,,,,,,,,,
,739,sentence,html-keyboard-response,133,224343,0.0-1.0-0.0-0.123,12,1,11/12/24 3:15,8cfd50b442d200139d34a594654a8206,139.140.204.53,"Mozilla/5.0 (Macintosh; Intel Mac OS X 10_15_7) AppleWebKit/537.36 (KHTML, like Gecko) Chrome/130.0.0.0 Safari/537.36",Macintosh,Chrome,130.0.0.0,OS X,10_15_7,https://dx9f2prhnj.cognition.run/,"en-US,en;q=0.9",345071762,He really hoped to see a foobly horse., ,foobly,positive,,,,,,,,,,,,,,
,967,sentence,html-keyboard-response,134,225313,0.0-1.0-0.0-0.124,12,1,11/12/24 3:15,8cfd50b442d200139d34a594654a8206,139.140.204.53,"Mozilla/5.0 (Macintosh; Intel Mac OS X 10_15_7) AppleWebKit/537.36 (KHTML, like Gecko) Chrome/130.0.0.0 Safari/537.36",Macintosh,Chrome,130.0.0.0,OS X,10_15_7,https://dx9f2prhnj.cognition.run/,"en-US,en;q=0.9",345071762,He would prefer a foobly apple., ,foobly,positive,,,,,,,,,,,,,,
,1005,sentence,html-keyboard-response,135,226322,0.0-1.0-0.0-0.125,12,1,11/12/24 3:15,8cfd50b442d200139d34a594654a8206,139.140.204.53,"Mozilla/5.0 (Macintosh; Intel Mac OS X 10_15_7) AppleWebKit/537.36 (KHTML, like Gecko) Chrome/130.0.0.0 Safari/537.36",Macintosh,Chrome,130.0.0.0,OS X,10_15_7,https://dx9f2prhnj.cognition.run/,"en-US,en;q=0.9",345071762,"In every grocery store, there is probably a nuppical apple.", ,nuppical,neutral,,,,,,,,,,,,,,
"[{""page_index"":0,""viewing_time"":10199}]",10199,instructions,instructions,136,236524,0.0-1.0-1.0,12,1,11/12/24 3:15,8cfd50b442d200139d34a594654a8206,139.140.204.53,"Mozilla/5.0 (Macintosh; Intel Mac OS X 10_15_7) AppleWebKit/537.36 (KHTML, like Gecko) Chrome/130.0.0.0 Safari/537.36",Macintosh,Chrome,130.0.0.0,OS X,10_15_7,https://dx9f2prhnj.cognition.run/,"en-US,en;q=0.9",345071762,,,,,,,,,,,,,,,,,,
,19736,meaning_check,survey-text,137,256263,0.0-1.0-2.0-0.0,12,1,11/12/24 3:15,8cfd50b442d200139d34a594654a8206,139.140.204.53,"Mozilla/5.0 (Macintosh; Intel Mac OS X 10_15_7) AppleWebKit/537.36 (KHTML, like Gecko) Chrome/130.0.0.0 Safari/537.36",Macintosh,Chrome,130.0.0.0,OS X,10_15_7,https://dx9f2prhnj.cognition.run/,"en-US,en;q=0.9",345071762,,I dislike my dodish fruit,,,,Please write your own sentence using the following word: <br><br> dodish,,,,,,,,,,,,
,22132,meaning_check,survey-text,138,278400,0.0-1.0-2.0-0.1,12,1,11/12/24 3:15,8cfd50b442d200139d34a594654a8206,139.140.204.53,"Mozilla/5.0 (Macintosh; Intel Mac OS X 10_15_7) AppleWebKit/537.36 (KHTML, like Gecko) Chrome/130.0.0.0 Safari/537.36",Macintosh,Chrome,130.0.0.0,OS X,10_15_7,https://dx9f2prhnj.cognition.run/,"en-US,en;q=0.9",345071762,,i love the contents of the foobly book,,,,Please write your own sentence using the following word: <br><br> foobly,,,,,,,,,,,,
,10726,meaning_check,survey-text,139,289130,0.0-1.0-2.0-0.2,12,1,11/12/24 3:15,8cfd50b442d200139d34a594654a8206,139.140.204.53,"Mozilla/5.0 (Macintosh; Intel Mac OS X 10_15_7) AppleWebKit/537.36 (KHTML, like Gecko) Chrome/130.0.0.0 Safari/537.36",Macintosh,Chrome,130.0.0.0,OS X,10_15_7,https://dx9f2prhnj.cognition.run/,"en-US,en;q=0.9",345071762,,there is a nuppical carrot at the store,,,,Please write your own sentence using the following word: <br><br> nuppical,,,,,,,,,,,,
,32261,meaning_check,survey-text,140,321397,0.0-1.0-2.0-0.3,12,1,11/12/24 3:15,8cfd50b442d200139d34a594654a8206,139.140.204.53,"Mozilla/5.0 (Macintosh; Intel Mac OS X 10_15_7) AppleWebKit/537.36 (KHTML, like Gecko) Chrome/130.0.0.0 Safari/537.36",Macintosh,Chrome,130.0.0.0,OS X,10_15_7,https://dx9f2prhnj.cognition.run/,"en-US,en;q=0.9",345071762,,the gross broccoli had a dodish taste,,,,Please write another sentence using the following word: <br><br> dodish,,,,,,,,,,,,
,14935,meaning_check,survey-text,141,336338,0.0-1.0-2.0-0.4,12,1,11/12/24 3:15,8cfd50b442d200139d34a594654a8206,139.140.204.53,"Mozilla/5.0 (Macintosh; Intel Mac OS X 10_15_7) AppleWebKit/537.36 (KHTML, like Gecko) Chrome/130.0.0.0 Safari/537.36",Macintosh,Chrome,130.0.0.0,OS X,10_15_7,https://dx9f2prhnj.cognition.run/,"en-US,en;q=0.9",345071762,,there was a foobly dog that I love,,,,Please write another sentence using the following word: <br><br> foobly,,,,,,,,,,,,
,12804,meaning_check,survey-text,142,349146,0.0-1.0-2.0-0.5,12,1,11/12/24 3:15,8cfd50b442d200139d34a594654a8206,139.140.204.53,"Mozilla/5.0 (Macintosh; Intel Mac OS X 10_15_7) AppleWebKit/537.36 (KHTML, like Gecko) Chrome/130.0.0.0 Safari/537.36",Macintosh,Chrome,130.0.0.0,OS X,10_15_7,https://dx9f2prhnj.cognition.run/,"en-US,en;q=0.9",345071762,,there is a nuppical haystack in the field,,,,Please write another sentence using the following word: <br><br> nuppical,,,,,,,,,,,,
"[{""page_index"":0,""viewing_time"":60354},{""page_index"":1,""viewing_time"":6924}]",67278,instructions,instructions,143,416427,0.0-2.0,12,1,11/12/24 3:15,8cfd50b442d200139d34a594654a8206,139.140.204.53,"Mozilla/5.0 (Macintosh; Intel Mac OS X 10_15_7) AppleWebKit/537.36 (KHTML, like Gecko) Chrome/130.0.0.0 Safari/537.36",Macintosh,Chrome,130.0.0.0,OS X,10_15_7,https://dx9f2prhnj.cognition.run/,"en-US,en;q=0.9",345071762,,,,,,,,,,,,,,,,,,
,,fixation,html-keyboard-response,144,416729,0.0-3.0-0.0,12,1,11/12/24 3:15,8cfd50b442d200139d34a594654a8206,139.140.204.53,"Mozilla/5.0 (Macintosh; Intel Mac OS X 10_15_7) AppleWebKit/537.36 (KHTML, like Gecko) Chrome/130.0.0.0 Safari/537.36",Macintosh,Chrome,130.0.0.0,OS X,10_15_7,https://dx9f2prhnj.cognition.run/,"en-US,en;q=0.9",345071762,+,null,,,,,,,,,,,,,,,,
,,image,image-keyboard-response,145,417236,0.0-3.0-1.0,12,1,11/12/24 3:15,8cfd50b442d200139d34a594654a8206,139.140.204.53,"Mozilla/5.0 (Macintosh; Intel Mac OS X 10_15_7) AppleWebKit/537.36 (KHTML, like Gecko) Chrome/130.0.0.0 Safari/537.36",Macintosh,Chrome,130.0.0.0,OS X,10_15_7,https://dx9f2prhnj.cognition.run/,"en-US,en;q=0.9",345071762,applehorse2.png,null,,,,,,,,,,,,,,,,
,,prime,image-keyboard-response,146,417743,0.0-3.0-2.0,12,1,11/12/24 3:15,8cfd50b442d200139d34a594654a8206,139.140.204.53,"Mozilla/5.0 (Macintosh; Intel Mac OS X 10_15_7) AppleWebKit/537.36 (KHTML, like Gecko) Chrome/130.0.0.0 Safari/537.36",Macintosh,Chrome,130.0.0.0,OS X,10_15_7,https://dx9f2prhnj.cognition.run/,"en-US,en;q=0.9",345071762,applehorse2.png,null,,,,,,,,,,,,,,,,
,1573,target,image-keyboard-response,147,419321,0.0-3.0-3.0,12,1,11/12/24 3:15,8cfd50b442d200139d34a594654a8206,139.140.204.53,"Mozilla/5.0 (Macintosh; Intel Mac OS X 10_15_7) AppleWebKit/537.36 (KHTML, like Gecko) Chrome/130.0.0.0 Safari/537.36",Macintosh,Chrome,130.0.0.0,OS X,10_15_7,https://dx9f2prhnj.cognition.run/,"en-US,en;q=0.9",345071762,applehorse2.png,a,,,true,,apple,mipp,A,,,,,,,,,
,,feedback,html-keyboard-response,148,420325,0.0-3.0-4.0,12,1,11/12/24 3:15,8cfd50b442d200139d34a594654a8206,139.140.204.53,"Mozilla/5.0 (Macintosh; Intel Mac OS X 10_15_7) AppleWebKit/537.36 (KHTML, like Gecko) Chrome/130.0.0.0 Safari/537.36",Macintosh,Chrome,130.0.0.0,OS X,10_15_7,https://dx9f2prhnj.cognition.run/,"en-US,en;q=0.9",345071762,<b>Too slow</b>! <br><br> Please try to respond faster.,null,,,,,,,,,,,,,,,,
,,fixation,html-keyboard-response,149,420631,0.0-3.0-0.1,12,1,11/12/24 3:15,8cfd50b442d200139d34a594654a8206,139.140.204.53,"Mozilla/5.0 (Macintosh; Intel Mac OS X 10_15_7) AppleWebKit/537.36 (KHTML, like Gecko) Chrome/130.0.0.0 Safari/537.36",Macintosh,Chrome,130.0.0.0,OS X,10_15_7,https://dx9f2prhnj.cognition.run/,"en-US,en;q=0.9",345071762,+,null,,,,,,,,,,,,,,,,
,,image,image-keyboard-response,150,421137,0.0-3.0-1.1,12,1,11/12/24 3:15,8cfd50b442d200139d34a594654a8206,139.140.204.53,"Mozilla/5.0 (Macintosh; Intel Mac OS X 10_15_7) AppleWebKit/537.36 (KHTML, like Gecko) Chrome/130.0.0.0 Safari/537.36",Macintosh,Chrome,130.0.0.0,OS X,10_15_7,https://dx9f2prhnj.cognition.run/,"en-US,en;q=0.9",345071762,applehorse2.png,null,,,,,,,,,,,,,,,,
,,prime,image-keyboard-response,151,421644,0.0-3.0-2.1,12,1,11/12/24 3:15,8cfd50b442d200139d34a594654a8206,139.140.204.53,"Mozilla/5.0 (Macintosh; Intel Mac OS X 10_15_7) AppleWebKit/537.36 (KHTML, like Gecko) Chrome/130.0.0.0 Safari/537.36",Macintosh,Chrome,130.0.0.0,OS X,10_15_7,https://dx9f2prhnj.cognition.run/,"en-US,en;q=0.9",345071762,applehorse2.png,null,,,,,,,,,,,,,,,,
,462,target,image-keyboard-response,152,422111,0.0-3.0-3.1,12,1,11/12/24 3:15,8cfd50b442d200139d34a594654a8206,139.140.204.53,"Mozilla/5.0 (Macintosh; Intel Mac OS X 10_15_7) AppleWebKit/537.36 (KHTML, like Gecko) Chrome/130.0.0.0 Safari/537.36",Macintosh,Chrome,130.0.0.0,OS X,10_15_7,https://dx9f2prhnj.cognition.run/,"en-US,en;q=0.9",345071762,applehorse2.png,a,,,false,,horse,mipp,L,,,,,,,,,
,,feedback,html-keyboard-response,153,423116,0.0-3.0-4.1,12,1,11/12/24 3:15,8cfd50b442d200139d34a594654a8206,139.140.204.53,"Mozilla/5.0 (Macintosh; Intel Mac OS X 10_15_7) AppleWebKit/537.36 (KHTML, like Gecko) Chrome/130.0.0.0 Safari/537.36",Macintosh,Chrome,130.0.0.0,OS X,10_15_7,https://dx9f2prhnj.cognition.run/,"en-US,en;q=0.9",345071762,<b>Incorrect</b>! <br><br> Please try to respond faster.,null,,,,,,,,,,,,,,,,
,,fixation,html-keyboard-response,154,423422,0.0-3.0-0.2,12,1,11/12/24 3:15,8cfd50b442d200139d34a594654a8206,139.140.204.53,"Mozilla/5.0 (Macintosh; Intel Mac OS X 10_15_7) AppleWebKit/537.36 (KHTML, like Gecko) Chrome/130.0.0.0 Safari/537.36",Macintosh,Chrome,130.0.0.0,OS X,10_15_7,https://dx9f2prhnj.cognition.run/,"en-US,en;q=0.9",345071762,+,null,,,,,,,,,,,,,,,,
,,image,image-keyboard-response,155,423928,0.0-3.0-1.2,12,1,11/12/24 3:15,8cfd50b442d200139d34a594654a8206,139.140.204.53,"Mozilla/5.0 (Macintosh; Intel Mac OS X 10_15_7) AppleWebKit/537.36 (KHTML, like Gecko) Chrome/130.0.0.0 Safari/537.36",Macintosh,Chrome,130.0.0.0,OS X,10_15_7,https://dx9f2prhnj.cognition.run/,"en-US,en;q=0.9",345071762,applehorse2.png,null,,,,,,,,,,,,,,,,
,,prime,image-keyboard-response,156,424434,0.0-3.0-2.2,12,1,11/12/24 3:15,8cfd50b442d200139d34a594654a8206,139.140.204.53,"Mozilla/5.0 (Macintosh; Intel Mac OS X 10_15_7) AppleWebKit/537.36 (KHTML, like Gecko) Chrome/130.0.0.0 Safari/537.36",Macintosh,Chrome,130.0.0.0,OS X,10_15_7,https://dx9f2prhnj.cognition.run/,"en-US,en;q=0.9",345071762,applehorse2.png,null,,,,,,,,,,,,,,,,
,680,target,image-keyboard-response,157,425120,0.0-3.0-3.2,12,1,11/12/24 3:15,8cfd50b442d200139d34a594654a8206,139.140.204.53,"Mozilla/5.0 (Macintosh; Intel Mac OS X 10_15_7) AppleWebKit/537.36 (KHTML, like Gecko) Chrome/130.0.0.0 Safari/537.36",Macintosh,Chrome,130.0.0.0,OS X,10_15_7,https://dx9f2prhnj.cognition.run/,"en-US,en;q=0.9",345071762,applehorse2.png,l,,,true,,horse,boff,L,,,,,,,,,
,,feedback,html-keyboard-response,158,426125,0.0-3.0-4.2,12,1,11/12/24 3:15,8cfd50b442d200139d34a594654a8206,139.140.204.53,"Mozilla/5.0 (Macintosh; Intel Mac OS X 10_15_7) AppleWebKit/537.36 (KHTML, like Gecko) Chrome/130.0.0.0 Safari/537.36",Macintosh,Chrome,130.0.0.0,OS X,10_15_7,https://dx9f2prhnj.cognition.run/,"en-US,en;q=0.9",345071762,<b>Correct</b>!,null,,,,,,,,,,,,,,,,
,,fixation,html-keyboard-response,159,426431,0.0-3.0-0.3,12,1,11/12/24 3:15,8cfd50b442d200139d34a594654a8206,139.140.204.53,"Mozilla/5.0 (Macintosh; Intel Mac OS X 10_15_7) AppleWebKit/537.36 (KHTML, like Gecko) Chrome/130.0.0.0 Safari/537.36",Macintosh,Chrome,130.0.0.0,OS X,10_15_7,https://dx9f2prhnj.cognition.run/,"en-US,en;q=0.9",345071762,+,null,,,,,,,,,,,,,,,,
,,image,image-keyboard-response,160,426938,0.0-3.0-1.3,12,1,11/12/24 3:15,8cfd50b442d200139d34a594654a8206,139.140.204.53,"Mozilla/5.0 (Macintosh; Intel Mac OS X 10_15_7) AppleWebKit/537.36 (KHTML, like Gecko) Chrome/130.0.0.0 Safari/537.36",Macintosh,Chrome,130.0.0.0,OS X,10_15_7,https://dx9f2prhnj.cognition.run/,"en-US,en;q=0.9",345071762,applehorse2.png,null,,,,,,,,,,,,,,,,
,,prime,image-keyboard-response,161,427445,0.0-3.0-2.3,12,1,11/12/24 3:15,8cfd50b442d200139d34a594654a8206,139.140.204.53,"Mozilla/5.0 (Macintosh; Intel Mac OS X 10_15_7) AppleWebKit/537.36 (KHTML, like Gecko) Chrome/130.0.0.0 Safari/537.36",Macintosh,Chrome,130.0.0.0,OS X,10_15_7,https://dx9f2prhnj.cognition.run/,"en-US,en;q=0.9",345071762,applehorse2.png,null,,,,,,,,,,,,,,,,
,534,target,image-keyboard-response,162,427985,0.0-3.0-3.3,12,1,11/12/24 3:15,8cfd50b442d200139d34a594654a8206,139.140.204.53,"Mozilla/5.0 (Macintosh; Intel Mac OS X 10_15_7) AppleWebKit/537.36 (KHTML, like Gecko) Chrome/130.0.0.0 Safari/537.36",Macintosh,Chrome,130.0.0.0,OS X,10_15_7,https://dx9f2prhnj.cognition.run/,"en-US,en;q=0.9",345071762,applehorse2.png,l,,,false,,apple,boff,A,,,,,,,,,
,,feedback,html-keyboard-response,163,428991,0.0-3.0-4.3,12,1,11/12/24 3:15,8cfd50b442d200139d34a594654a8206,139.140.204.53,"Mozilla/5.0 (Macintosh; Intel Mac OS X 10_15_7) AppleWebKit/537.36 (KHTML, like Gecko) Chrome/130.0.0.0 Safari/537.36",Macintosh,Chrome,130.0.0.0,OS X,10_15_7,https://dx9f2prhnj.cognition.run/,"en-US,en;q=0.9",345071762,<b>Incorrect</b>! <br><br> Please try to respond faster.,null,,,,,,,,,,,,,,,,
,,fixation,html-keyboard-response,164,429297,0.0-3.0-0.4,12,1,11/12/24 3:15,8cfd50b442d200139d34a594654a8206,139.140.204.53,"Mozilla/5.0 (Macintosh; Intel Mac OS X 10_15_7) AppleWebKit/537.36 (KHTML, like Gecko) Chrome/130.0.0.0 Safari/537.36",Macintosh,Chrome,130.0.0.0,OS X,10_15_7,https://dx9f2prhnj.cognition.run/,"en-US,en;q=0.9",345071762,+,null,,,,,,,,,,,,,,,,
,,image,image-keyboard-response,165,429803,0.0-3.0-1.4,12,1,11/12/24 3:15,8cfd50b442d200139d34a594654a8206,139.140.204.53,"Mozilla/5.0 (Macintosh; Intel Mac OS X 10_15_7) AppleWebKit/537.36 (KHTML, like Gecko) Chrome/130.0.0.0 Safari/537.36",Macintosh,Chrome,130.0.0.0,OS X,10_15_7,https://dx9f2prhnj.cognition.run/,"en-US,en;q=0.9",345071762,horseapple2.png,null,,,,,,,,,,,,,,,,
,,prime,image-keyboard-response,166,430309,0.0-3.0-2.4,12,1,11/12/24 3:15,8cfd50b442d200139d34a594654a8206,139.140.204.53,"Mozilla/5.0 (Macintosh; Intel Mac OS X 10_15_7) AppleWebKit/537.36 (KHTML, like Gecko) Chrome/130.0.0.0 Safari/537.36",Macintosh,Chrome,130.0.0.0,OS X,10_15_7,https://dx9f2prhnj.cognition.run/,"en-US,en;q=0.9",345071762,horseapple2.png,null,,,,,,,,,,,,,,,,
,623,target,image-keyboard-response,167,430938,0.0-3.0-3.4,12,1,11/12/24 3:15,8cfd50b442d200139d34a594654a8206,139.140.204.53,"Mozilla/5.0 (Macintosh; Intel Mac OS X 10_15_7) AppleWebKit/537.36 (KHTML, like Gecko) Chrome/130.0.0.0 Safari/537.36",Macintosh,Chrome,130.0.0.0,OS X,10_15_7,https://dx9f2prhnj.cognition.run/,"en-US,en;q=0.9",345071762,horseapple2.png,l,,,true,,apple,boff,L,,,,,,,,,
,,feedback,html-keyboard-response,168,431944,0.0-3.0-4.4,12,1,11/12/24 3:15,8cfd50b442d200139d34a594654a8206,139.140.204.53,"Mozilla/5.0 (Macintosh; Intel Mac OS X 10_15_7) AppleWebKit/537.36 (KHTML, like Gecko) Chrome/130.0.0.0 Safari/537.36",Macintosh,Chrome,130.0.0.0,OS X,10_15_7,https://dx9f2prhnj.cognition.run/,"en-US,en;q=0.9",345071762,<b>Correct</b>!,null,,,,,,,,,,,,,,,,
,,fixation,html-keyboard-response,169,432250,0.0-3.0-0.5,12,1,11/12/24 3:15,8cfd50b442d200139d34a594654a8206,139.140.204.53,"Mozilla/5.0 (Macintosh; Intel Mac OS X 10_15_7) AppleWebKit/537.36 (KHTML, like Gecko) Chrome/130.0.0.0 Safari/537.36",Macintosh,Chrome,130.0.0.0,OS X,10_15_7,https://dx9f2prhnj.cognition.run/,"en-US,en;q=0.9",345071762,+,null,,,,,,,,,,,,,,,,
,,image,image-keyboard-response,170,432757,0.0-3.0-1.5,12,1,11/12/24 3:15,8cfd50b442d200139d34a594654a8206,139.140.204.53,"Mozilla/5.0 (Macintosh; Intel Mac OS X 10_15_7) AppleWebKit/537.36 (KHTML, like Gecko) Chrome/130.0.0.0 Safari/537.36",Macintosh,Chrome,130.0.0.0,OS X,10_15_7,https://dx9f2prhnj.cognition.run/,"en-US,en;q=0.9",345071762,applehorse2.png,null,,,,,,,,,,,,,,,,
,,prime,image-keyboard-response,171,433263,0.0-3.0-2.5,12,1,11/12/24 3:15,8cfd50b442d200139d34a594654a8206,139.140.204.53,"Mozilla/5.0 (Macintosh; Intel Mac OS X 10_15_7) AppleWebKit/537.36 (KHTML, like Gecko) Chrome/130.0.0.0 Safari/537.36",Macintosh,Chrome,130.0.0.0,OS X,10_15_7,https://dx9f2prhnj.cognition.run/,"en-US,en;q=0.9",345071762,applehorse2.png,null,,,,,,,,,,,,,,,,
,741,target,image-keyboard-response,172,434010,0.0-3.0-3.5,12,1,11/12/24 3:15,8cfd50b442d200139d34a594654a8206,139.140.204.53,"Mozilla/5.0 (Macintosh; Intel Mac OS X 10_15_7) AppleWebKit/537.36 (KHTML, like Gecko) Chrome/130.0.0.0 Safari/537.36",Macintosh,Chrome,130.0.0.0,OS X,10_15_7,https://dx9f2prhnj.cognition.run/,"en-US,en;q=0.9",345071762,applehorse2.png,a,,,false,,horse,geck,L,,,,,,,,,
,,feedback,html-keyboard-response,173,435014,0.0-3.0-4.5,12,1,11/12/24 3:15,8cfd50b442d200139d34a594654a8206,139.140.204.53,"Mozilla/5.0 (Macintosh; Intel Mac OS X 10_15_7) AppleWebKit/537.36 (KHTML, like Gecko) Chrome/130.0.0.0 Safari/537.36",Macintosh,Chrome,130.0.0.0,OS X,10_15_7,https://dx9f2prhnj.cognition.run/,"en-US,en;q=0.9",345071762,<b>Incorrect</b>! <br><br> Please try to respond faster.,null,,,,,,,,,,,,,,,,
,,fixation,html-keyboard-response,174,435321,0.0-3.0-0.6,12,1,11/12/24 3:15,8cfd50b442d200139d34a594654a8206,139.140.204.53,"Mozilla/5.0 (Macintosh; Intel Mac OS X 10_15_7) AppleWebKit/537.36 (KHTML, like Gecko) Chrome/130.0.0.0 Safari/537.36",Macintosh,Chrome,130.0.0.0,OS X,10_15_7,https://dx9f2prhnj.cognition.run/,"en-US,en;q=0.9",345071762,+,null,,,,,,,,,,,,,,,,
,,image,image-keyboard-response,175,435826,0.0-3.0-1.6,12,1,11/12/24 3:15,8cfd50b442d200139d34a594654a8206,139.140.204.53,"Mozilla/5.0 (Macintosh; Intel Mac OS X 10_15_7) AppleWebKit/537.36 (KHTML, like Gecko) Chrome/130.0.0.0 Safari/537.36",Macintosh,Chrome,130.0.0.0,OS X,10_15_7,https://dx9f2prhnj.cognition.run/,"en-US,en;q=0.9",345071762,applehorse2.png,null,,,,,,,,,,,,,,,,
,,prime,image-keyboard-response,176,436333,0.0-3.0-2.6,12,1,11/12/24 3:15,8cfd50b442d200139d34a594654a8206,139.140.204.53,"Mozilla/5.0 (Macintosh; Intel Mac OS X 10_15_7) AppleWebKit/537.36 (KHTML, like Gecko) Chrome/130.0.0.0 Safari/537.36",Macintosh,Chrome,130.0.0.0,OS X,10_15_7,https://dx9f2prhnj.cognition.run/,"en-US,en;q=0.9",345071762,applehorse2.png,null,,,,,,,,,,,,,,,,
,819,target,image-keyboard-response,177,437158,0.0-3.0-3.6,12,1,11/12/24 3:15,8cfd50b442d200139d34a594654a8206,139.140.204.53,"Mozilla/5.0 (Macintosh; Intel Mac OS X 10_15_7) AppleWebKit/537.36 (KHTML, like Gecko) Chrome/130.0.0.0 Safari/537.36",Macintosh,Chrome,130.0.0.0,OS X,10_15_7,https://dx9f2prhnj.cognition.run/,"en-US,en;q=0.9",345071762,applehorse2.png,a,,,true,,apple,geck,A,,,,,,,,,
,,feedback,html-keyboard-response,178,438162,0.0-3.0-4.6,12,1,11/12/24 3:15,8cfd50b442d200139d34a594654a8206,139.140.204.53,"Mozilla/5.0 (Macintosh; Intel Mac OS X 10_15_7) AppleWebKit/537.36 (KHTML, like Gecko) Chrome/130.0.0.0 Safari/537.36",Macintosh,Chrome,130.0.0.0,OS X,10_15_7,https://dx9f2prhnj.cognition.run/,"en-US,en;q=0.9",345071762,<b>Too slow</b>! <br><br> Please try to respond faster.,null,,,,,,,,,,,,,,,,
,,fixation,html-keyboard-response,179,438469,0.0-3.0-0.7,12,1,11/12/24 3:15,8cfd50b442d200139d34a594654a8206,139.140.204.53,"Mozilla/5.0 (Macintosh; Intel Mac OS X 10_15_7) AppleWebKit/537.36 (KHTML, like Gecko) Chrome/130.0.0.0 Safari/537.36",Macintosh,Chrome,130.0.0.0,OS X,10_15_7,https://dx9f2prhnj.cognition.run/,"en-US,en;q=0.9",345071762,+,null,,,,,,,,,,,,,,,,
,,image,image-keyboard-response,180,438976,0.0-3.0-1.7,12,1,11/12/24 3:15,8cfd50b442d200139d34a594654a8206,139.140.204.53,"Mozilla/5.0 (Macintosh; Intel Mac OS X 10_15_7) AppleWebKit/537.36 (KHTML, like Gecko) Chrome/130.0.0.0 Safari/537.36",Macintosh,Chrome,130.0.0.0,OS X,10_15_7,https://dx9f2prhnj.cognition.run/,"en-US,en;q=0.9",345071762,horseapple2.png,null,,,,,,,,,,,,,,,,
,,prime,image-keyboard-response,181,439483,0.0-3.0-2.7,12,1,11/12/24 3:15,8cfd50b442d200139d34a594654a8206,139.140.204.53,"Mozilla/5.0 (Macintosh; Intel Mac OS X 10_15_7) AppleWebKit/537.36 (KHTML, like Gecko) Chrome/130.0.0.0 Safari/537.36",Macintosh,Chrome,130.0.0.0,OS X,10_15_7,https://dx9f2prhnj.cognition.run/,"en-US,en;q=0.9",345071762,horseapple2.png,null,,,,,,,,,,,,,,,,
,374,target,image-keyboard-response,182,439862,0.0-3.0-3.7,12,1,11/12/24 3:15,8cfd50b442d200139d34a594654a8206,139.140.204.53,"Mozilla/5.0 (Macintosh; Intel Mac OS X 10_15_7) AppleWebKit/537.36 (KHTML, like Gecko) Chrome/130.0.0.0 Safari/537.36",Macintosh,Chrome,130.0.0.0,OS X,10_15_7,https://dx9f2prhnj.cognition.run/,"en-US,en;q=0.9",345071762,horseapple2.png,l,,,true,,apple,mipp,L,,,,,,,,,
,,feedback,html-keyboard-response,183,440868,0.0-3.0-4.7,12,1,11/12/24 3:15,8cfd50b442d200139d34a594654a8206,139.140.204.53,"Mozilla/5.0 (Macintosh; Intel Mac OS X 10_15_7) AppleWebKit/537.36 (KHTML, like Gecko) Chrome/130.0.0.0 Safari/537.36",Macintosh,Chrome,130.0.0.0,OS X,10_15_7,https://dx9f2prhnj.cognition.run/,"en-US,en;q=0.9",345071762,<b>Correct</b>!,null,,,,,,,,,,,,,,,,
,,fixation,html-keyboard-response,184,441174,0.0-3.0-0.8,12,1,11/12/24 3:15,8cfd50b442d200139d34a594654a8206,139.140.204.53,"Mozilla/5.0 (Macintosh; Intel Mac OS X 10_15_7) AppleWebKit/537.36 (KHTML, like Gecko) Chrome/130.0.0.0 Safari/537.36",Macintosh,Chrome,130.0.0.0,OS X,10_15_7,https://dx9f2prhnj.cognition.run/,"en-US,en;q=0.9",345071762,+,null,,,,,,,,,,,,,,,,
,,image,image-keyboard-response,185,441681,0.0-3.0-1.8,12,1,11/12/24 3:15,8cfd50b442d200139d34a594654a8206,139.140.204.53,"Mozilla/5.0 (Macintosh; Intel Mac OS X 10_15_7) AppleWebKit/537.36 (KHTML, like Gecko) Chrome/130.0.0.0 Safari/537.36",Macintosh,Chrome,130.0.0.0,OS X,10_15_7,https://dx9f2prhnj.cognition.run/,"en-US,en;q=0.9",345071762,applehorse2.png,null,,,,,,,,,,,,,,,,
,,prime,image-keyboard-response,186,442188,0.0-3.0-2.8,12,1,11/12/24 3:15,8cfd50b442d200139d34a594654a8206,139.140.204.53,"Mozilla/5.0 (Macintosh; Intel Mac OS X 10_15_7) AppleWebKit/537.36 (KHTML, like Gecko) Chrome/130.0.0.0 Safari/537.36",Macintosh,Chrome,130.0.0.0,OS X,10_15_7,https://dx9f2prhnj.cognition.run/,"en-US,en;q=0.9",345071762,applehorse2.png,null,,,,,,,,,,,,,,,,
,629,target,image-keyboard-response,187,442823,0.0-3.0-3.8,12,1,11/12/24 3:15,8cfd50b442d200139d34a594654a8206,139.140.204.53,"Mozilla/5.0 (Macintosh; Intel Mac OS X 10_15_7) AppleWebKit/537.36 (KHTML, like Gecko) Chrome/130.0.0.0 Safari/537.36",Macintosh,Chrome,130.0.0.0,OS X,10_15_7,https://dx9f2prhnj.cognition.run/,"en-US,en;q=0.9",345071762,applehorse2.png,l,,,true,,horse,geck,L,,,,,,,,,
,,feedback,html-keyboard-response,188,443827,0.0-3.0-4.8,12,1,11/12/24 3:15,8cfd50b442d200139d34a594654a8206,139.140.204.53,"Mozilla/5.0 (Macintosh; Intel Mac OS X 10_15_7) AppleWebKit/537.36 (KHTML, like Gecko) Chrome/130.0.0.0 Safari/537.36",Macintosh,Chrome,130.0.0.0,OS X,10_15_7,https://dx9f2prhnj.cognition.run/,"en-US,en;q=0.9",345071762,<b>Correct</b>!,null,,,,,,,,,,,,,,,,
,,fixation,html-keyboard-response,189,444133,0.0-4.0-0.0,12,1,11/12/24 3:15,8cfd50b442d200139d34a594654a8206,139.140.204.53,"Mozilla/5.0 (Macintosh; Intel Mac OS X 10_15_7) AppleWebKit/537.36 (KHTML, like Gecko) Chrome/130.0.0.0 Safari/537.36",Macintosh,Chrome,130.0.0.0,OS X,10_15_7,https://dx9f2prhnj.cognition.run/,"en-US,en;q=0.9",345071762,+,null,,,,,,,,,,,,,,,,
,,image,image-keyboard-response,190,444640,0.0-4.0-1.0,12,1,11/12/24 3:15,8cfd50b442d200139d34a594654a8206,139.140.204.53,"Mozilla/5.0 (Macintosh; Intel Mac OS X 10_15_7) AppleWebKit/537.36 (KHTML, like Gecko) Chrome/130.0.0.0 Safari/537.36",Macintosh,Chrome,130.0.0.0,OS X,10_15_7,https://dx9f2prhnj.cognition.run/,"en-US,en;q=0.9",345071762,,null,,,,,,,,,,,,,,,,
,,prime,image-keyboard-response,191,445146,0.0-4.0-2.0,12,1,11/12/24 3:15,8cfd50b442d200139d34a594654a8206,139.140.204.53,"Mozilla/5.0 (Macintosh; Intel Mac OS X 10_15_7) AppleWebKit/537.36 (KHTML, like Gecko) Chrome/130.0.0.0 Safari/537.36",Macintosh,Chrome,130.0.0.0,OS X,10_15_7,https://dx9f2prhnj.cognition.run/,"en-US,en;q=0.9",345071762,,null,,,,,,,,,,,,,,,,
,7326,target,image-keyboard-response,192,452477,0.0-4.0-3.0,12,1,11/12/24 3:15,8cfd50b442d200139d34a594654a8206,139.140.204.53,"Mozilla/5.0 (Macintosh; Intel Mac OS X 10_15_7) AppleWebKit/537.36 (KHTML, like Gecko) Chrome/130.0.0.0 Safari/537.36",Macintosh,Chrome,130.0.0.0,OS X,10_15_7,https://dx9f2prhnj.cognition.run/,"en-US,en;q=0.9",345071762,,l,,,false,,,,,,,,,,,,,
,,feedback,html-keyboard-response,193,453483,0.0-4.0-4.0-0.0,12,1,11/12/24 3:15,8cfd50b442d200139d34a594654a8206,139.140.204.53,"Mozilla/5.0 (Macintosh; Intel Mac OS X 10_15_7) AppleWebKit/537.36 (KHTML, like Gecko) Chrome/130.0.0.0 Safari/537.36",Macintosh,Chrome,130.0.0.0,OS X,10_15_7,https://dx9f2prhnj.cognition.run/,"en-US,en;q=0.9",345071762,<br>Too slow! <br><br> Please try to respond faster.,null,,,,,,,,,,,,,,,,
,,fixation,html-keyboard-response,194,453790,0.0-4.0-0.1,12,1,11/12/24 3:15,8cfd50b442d200139d34a594654a8206,139.140.204.53,"Mozilla/5.0 (Macintosh; Intel Mac OS X 10_15_7) AppleWebKit/537.36 (KHTML, like Gecko) Chrome/130.0.0.0 Safari/537.36",Macintosh,Chrome,130.0.0.0,OS X,10_15_7,https://dx9f2prhnj.cognition.run/,"en-US,en;q=0.9",345071762,+,null,,,,,,,,,,,,,,,,
,,image,image-keyboard-response,195,454298,0.0-4.0-1.1,12,1,11/12/24 3:15,8cfd50b442d200139d34a594654a8206,139.140.204.53,"Mozilla/5.0 (Macintosh; Intel Mac OS X 10_15_7) AppleWebKit/537.36 (KHTML, like Gecko) Chrome/130.0.0.0 Safari/537.36",Macintosh,Chrome,130.0.0.0,OS X,10_15_7,https://dx9f2prhnj.cognition.run/,"en-US,en;q=0.9",345071762,horseapple2.png,null,,,,,,,,,,,,,,,,
,,prime,image-keyboard-response,196,454805,0.0-4.0-2.1,12,1,11/12/24 3:15,8cfd50b442d200139d34a594654a8206,139.140.204.53,"Mozilla/5.0 (Macintosh; Intel Mac OS X 10_15_7) AppleWebKit/537.36 (KHTML, like Gecko) Chrome/130.0.0.0 Safari/537.36",Macintosh,Chrome,130.0.0.0,OS X,10_15_7,https://dx9f2prhnj.cognition.run/,"en-US,en;q=0.9",345071762,horseapple2.png,null,,,,,,,,,,,,,,,,
,630,target,image-keyboard-response,197,455441,0.0-4.0-3.1,12,1,11/12/24 3:15,8cfd50b442d200139d34a594654a8206,139.140.204.53,"Mozilla/5.0 (Macintosh; Intel Mac OS X 10_15_7) AppleWebKit/537.36 (KHTML, like Gecko) Chrome/130.0.0.0 Safari/537.36",Macintosh,Chrome,130.0.0.0,OS X,10_15_7,https://dx9f2prhnj.cognition.run/,"en-US,en;q=0.9",345071762,horseapple2.png,a,,,true,,horse,dodish,A,,,,,,,,,
,,fixation,html-keyboard-response,198,455746,0.0-4.0-0.2,12,1,11/12/24 3:15,8cfd50b442d200139d34a594654a8206,139.140.204.53,"Mozilla/5.0 (Macintosh; Intel Mac OS X 10_15_7) AppleWebKit/537.36 (KHTML, like Gecko) Chrome/130.0.0.0 Safari/537.36",Macintosh,Chrome,130.0.0.0,OS X,10_15_7,https://dx9f2prhnj.cognition.run/,"en-US,en;q=0.9",345071762,+,null,,,,,,,,,,,,,,,,
,,image,image-keyboard-response,199,456254,0.0-4.0-1.2,12,1,11/12/24 3:15,8cfd50b442d200139d34a594654a8206,139.140.204.53,"Mozilla/5.0 (Macintosh; Intel Mac OS X 10_15_7) AppleWebKit/537.36 (KHTML, like Gecko) Chrome/130.0.0.0 Safari/537.36",Macintosh,Chrome,130.0.0.0,OS X,10_15_7,https://dx9f2prhnj.cognition.run/,"en-US,en;q=0.9",345071762,applehorse2.png,null,,,,,,,,,,,,,,,,
,,prime,image-keyboard-response,200,456761,0.0-4.0-2.2,12,1,11/12/24 3:15,8cfd50b442d200139d34a594654a8206,139.140.204.53,"Mozilla/5.0 (Macintosh; Intel Mac OS X 10_15_7) AppleWebKit/537.36 (KHTML, like Gecko) Chrome/130.0.0.0 Safari/537.36",Macintosh,Chrome,130.0.0.0,OS X,10_15_7,https://dx9f2prhnj.cognition.run/,"en-US,en;q=0.9",345071762,applehorse2.png,null,,,,,,,,,,,,,,,,
,590,target,image-keyboard-response,201,457356,0.0-4.0-3.2,12,1,11/12/24 3:15,8cfd50b442d200139d34a594654a8206,139.140.204.53,"Mozilla/5.0 (Macintosh; Intel Mac OS X 10_15_7) AppleWebKit/537.36 (KHTML, like Gecko) Chrome/130.0.0.0 Safari/537.36",Macintosh,Chrome,130.0.0.0,OS X,10_15_7,https://dx9f2prhnj.cognition.run/,"en-US,en;q=0.9",345071762,applehorse2.png,a,,,true,,apple,foobly,A,,,,,,,,,
,,fixation,html-keyboard-response,202,457663,0.0-4.0-0.3,12,1,11/12/24 3:15,8cfd50b442d200139d34a594654a8206,139.140.204.53,"Mozilla/5.0 (Macintosh; Intel Mac OS X 10_15_7) AppleWebKit/537.36 (KHTML, like Gecko) Chrome/130.0.0.0 Safari/537.36",Macintosh,Chrome,130.0.0.0,OS X,10_15_7,https://dx9f2prhnj.cognition.run/,"en-US,en;q=0.9",345071762,+,null,,,,,,,,,,,,,,,,
,,image,image-keyboard-response,203,458169,0.0-4.0-1.3,12,1,11/12/24 3:15,8cfd50b442d200139d34a594654a8206,139.140.204.53,"Mozilla/5.0 (Macintosh; Intel Mac OS X 10_15_7) AppleWebKit/537.36 (KHTML, like Gecko) Chrome/130.0.0.0 Safari/537.36",Macintosh,Chrome,130.0.0.0,OS X,10_15_7,https://dx9f2prhnj.cognition.run/,"en-US,en;q=0.9",345071762,applehorse2.png,null,,,,,,,,,,,,,,,,
,,prime,image-keyboard-response,204,458676,0.0-4.0-2.3,12,1,11/12/24 3:15,8cfd50b442d200139d34a594654a8206,139.140.204.53,"Mozilla/5.0 (Macintosh; Intel Mac OS X 10_15_7) AppleWebKit/537.36 (KHTML, like Gecko) Chrome/130.0.0.0 Safari/537.36",Macintosh,Chrome,130.0.0.0,OS X,10_15_7,https://dx9f2prhnj.cognition.run/,"en-US,en;q=0.9",345071762,applehorse2.png,null,,,,,,,,,,,,,,,,
,450,target,image-keyboard-response,205,459131,0.0-4.0-3.3,12,1,11/12/24 3:15,8cfd50b442d200139d34a594654a8206,139.140.204.53,"Mozilla/5.0 (Macintosh; Intel Mac OS X 10_15_7) AppleWebKit/537.36 (KHTML, like Gecko) Chrome/130.0.0.0 Safari/537.36",Macintosh,Chrome,130.0.0.0,OS X,10_15_7,https://dx9f2prhnj.cognition.run/,"en-US,en;q=0.9",345071762,applehorse2.png,a,,,true,,apple,foobly,A,,,,,,,,,
,,fixation,html-keyboard-response,206,459436,0.0-4.0-0.4,12,1,11/12/24 3:15,8cfd50b442d200139d34a594654a8206,139.140.204.53,"Mozilla/5.0 (Macintosh; Intel Mac OS X 10_15_7) AppleWebKit/537.36 (KHTML, like Gecko) Chrome/130.0.0.0 Safari/537.36",Macintosh,Chrome,130.0.0.0,OS X,10_15_7,https://dx9f2prhnj.cognition.run/,"en-US,en;q=0.9",345071762,+,null,,,,,,,,,,,,,,,,
,,image,image-keyboard-response,207,459943,0.0-4.0-1.4,12,1,11/12/24 3:15,8cfd50b442d200139d34a594654a8206,139.140.204.53,"Mozilla/5.0 (Macintosh; Intel Mac OS X 10_15_7) AppleWebKit/537.36 (KHTML, like Gecko) Chrome/130.0.0.0 Safari/537.36",Macintosh,Chrome,130.0.0.0,OS X,10_15_7,https://dx9f2prhnj.cognition.run/,"en-US,en;q=0.9",345071762,applehorse2.png,null,,,,,,,,,,,,,,,,
,,prime,image-keyboard-response,208,460449,0.0-4.0-2.4,12,1,11/12/24 3:15,8cfd50b442d200139d34a594654a8206,139.140.204.53,"Mozilla/5.0 (Macintosh; Intel Mac OS X 10_15_7) AppleWebKit/537.36 (KHTML, like Gecko) Chrome/130.0.0.0 Safari/537.36",Macintosh,Chrome,130.0.0.0,OS X,10_15_7,https://dx9f2prhnj.cognition.run/,"en-US,en;q=0.9",345071762,applehorse2.png,null,,,,,,,,,,,,,,,,
,435,target,image-keyboard-response,209,460890,0.0-4.0-3.4,12,1,11/12/24 3:15,8cfd50b442d200139d34a594654a8206,139.140.204.53,"Mozilla/5.0 (Macintosh; Intel Mac OS X 10_15_7) AppleWebKit/537.36 (KHTML, like Gecko) Chrome/130.0.0.0 Safari/537.36",Macintosh,Chrome,130.0.0.0,OS X,10_15_7,https://dx9f2prhnj.cognition.run/,"en-US,en;q=0.9",345071762,applehorse2.png,l,,,true,,horse,boff,L,,,,,,,,,
,,fixation,html-keyboard-response,210,461197,0.0-4.0-0.5,12,1,11/12/24 3:15,8cfd50b442d200139d34a594654a8206,139.140.204.53,"Mozilla/5.0 (Macintosh; Intel Mac OS X 10_15_7) AppleWebKit/537.36 (KHTML, like Gecko) Chrome/130.0.0.0 Safari/537.36",Macintosh,Chrome,130.0.0.0,OS X,10_15_7,https://dx9f2prhnj.cognition.run/,"en-US,en;q=0.9",345071762,+,null,,,,,,,,,,,,,,,,
,,image,image-keyboard-response,211,461703,0.0-4.0-1.5,12,1,11/12/24 3:15,8cfd50b442d200139d34a594654a8206,139.140.204.53,"Mozilla/5.0 (Macintosh; Intel Mac OS X 10_15_7) AppleWebKit/537.36 (KHTML, like Gecko) Chrome/130.0.0.0 Safari/537.36",Macintosh,Chrome,130.0.0.0,OS X,10_15_7,https://dx9f2prhnj.cognition.run/,"en-US,en;q=0.9",345071762,applehorse2.png,null,,,,,,,,,,,,,,,,
,,prime,image-keyboard-response,212,462210,0.0-4.0-2.5,12,1,11/12/24 3:15,8cfd50b442d200139d34a594654a8206,139.140.204.53,"Mozilla/5.0 (Macintosh; Intel Mac OS X 10_15_7) AppleWebKit/537.36 (KHTML, like Gecko) Chrome/130.0.0.0 Safari/537.36",Macintosh,Chrome,130.0.0.0,OS X,10_15_7,https://dx9f2prhnj.cognition.run/,"en-US,en;q=0.9",345071762,applehorse2.png,null,,,,,,,,,,,,,,,,
,455,target,image-keyboard-response,213,462671,0.0-4.0-3.5,12,1,11/12/24 3:15,8cfd50b442d200139d34a594654a8206,139.140.204.53,"Mozilla/5.0 (Macintosh; Intel Mac OS X 10_15_7) AppleWebKit/537.36 (KHTML, like Gecko) Chrome/130.0.0.0 Safari/537.36",Macintosh,Chrome,130.0.0.0,OS X,10_15_7,https://dx9f2prhnj.cognition.run/,"en-US,en;q=0.9",345071762,applehorse2.png,a,,,true,,apple,nuppical,A,,,,,,,,,
,,fixation,html-keyboard-response,214,462977,0.0-4.0-0.6,12,1,11/12/24 3:15,8cfd50b442d200139d34a594654a8206,139.140.204.53,"Mozilla/5.0 (Macintosh; Intel Mac OS X 10_15_7) AppleWebKit/537.36 (KHTML, like Gecko) Chrome/130.0.0.0 Safari/537.36",Macintosh,Chrome,130.0.0.0,OS X,10_15_7,https://dx9f2prhnj.cognition.run/,"en-US,en;q=0.9",345071762,+,null,,,,,,,,,,,,,,,,
,,image,image-keyboard-response,215,463485,0.0-4.0-1.6,12,1,11/12/24 3:15,8cfd50b442d200139d34a594654a8206,139.140.204.53,"Mozilla/5.0 (Macintosh; Intel Mac OS X 10_15_7) AppleWebKit/537.36 (KHTML, like Gecko) Chrome/130.0.0.0 Safari/537.36",Macintosh,Chrome,130.0.0.0,OS X,10_15_7,https://dx9f2prhnj.cognition.run/,"en-US,en;q=0.9",345071762,horseapple2.png,null,,,,,,,,,,,,,,,,
,,prime,image-keyboard-response,216,463992,0.0-4.0-2.6,12,1,11/12/24 3:15,8cfd50b442d200139d34a594654a8206,139.140.204.53,"Mozilla/5.0 (Macintosh; Intel Mac OS X 10_15_7) AppleWebKit/537.36 (KHTML, like Gecko) Chrome/130.0.0.0 Safari/537.36",Macintosh,Chrome,130.0.0.0,OS X,10_15_7,https://dx9f2prhnj.cognition.run/,"en-US,en;q=0.9",345071762,horseapple2.png,null,,,,,,,,,,,,,,,,
,660,target,image-keyboard-response,217,464664,0.0-4.0-3.6,12,1,11/12/24 3:15,8cfd50b442d200139d34a594654a8206,139.140.204.53,"Mozilla/5.0 (Macintosh; Intel Mac OS X 10_15_7) AppleWebKit/537.36 (KHTML, like Gecko) Chrome/130.0.0.0 Safari/537.36",Macintosh,Chrome,130.0.0.0,OS X,10_15_7,https://dx9f2prhnj.cognition.run/,"en-US,en;q=0.9",345071762,horseapple2.png,l,,,true,,apple,dodish,L,,,,,,,,,
,,fixation,html-keyboard-response,218,464971,0.0-4.0-0.7,12,1,11/12/24 3:15,8cfd50b442d200139d34a594654a8206,139.140.204.53,"Mozilla/5.0 (Macintosh; Intel Mac OS X 10_15_7) AppleWebKit/537.36 (KHTML, like Gecko) Chrome/130.0.0.0 Safari/537.36",Macintosh,Chrome,130.0.0.0,OS X,10_15_7,https://dx9f2prhnj.cognition.run/,"en-US,en;q=0.9",345071762,+,null,,,,,,,,,,,,,,,,
,,image,image-keyboard-response,219,465478,0.0-4.0-1.7,12,1,11/12/24 3:15,8cfd50b442d200139d34a594654a8206,139.140.204.53,"Mozilla/5.0 (Macintosh; Intel Mac OS X 10_15_7) AppleWebKit/537.36 (KHTML, like Gecko) Chrome/130.0.0.0 Safari/537.36",Macintosh,Chrome,130.0.0.0,OS X,10_15_7,https://dx9f2prhnj.cognition.run/,"en-US,en;q=0.9",345071762,applehorse2.png,null,,,,,,,,,,,,,,,,
,,prime,image-keyboard-response,220,465986,0.0-4.0-2.7,12,1,11/12/24 3:15,8cfd50b442d200139d34a594654a8206,139.140.204.53,"Mozilla/5.0 (Macintosh; Intel Mac OS X 10_15_7) AppleWebKit/537.36 (KHTML, like Gecko) Chrome/130.0.0.0 Safari/537.36",Macintosh,Chrome,130.0.0.0,OS X,10_15_7,https://dx9f2prhnj.cognition.run/,"en-US,en;q=0.9",345071762,applehorse2.png,null,,,,,,,,,,,,,,,,
,611,target,image-keyboard-response,221,466603,0.0-4.0-3.7,12,1,11/12/24 3:15,8cfd50b442d200139d34a594654a8206,139.140.204.53,"Mozilla/5.0 (Macintosh; Intel Mac OS X 10_15_7) AppleWebKit/537.36 (KHTML, like Gecko) Chrome/130.0.0.0 Safari/537.36",Macintosh,Chrome,130.0.0.0,OS X,10_15_7,https://dx9f2prhnj.cognition.run/,"en-US,en;q=0.9",345071762,applehorse2.png,l,,,true,,horse,nuppical,L,,,,,,,,,
,,fixation,html-keyboard-response,222,466909,0.0-4.0-0.8,12,1,11/12/24 3:15,8cfd50b442d200139d34a594654a8206,139.140.204.53,"Mozilla/5.0 (Macintosh; Intel Mac OS X 10_15_7) AppleWebKit/537.36 (KHTML, like Gecko) Chrome/130.0.0.0 Safari/537.36",Macintosh,Chrome,130.0.0.0,OS X,10_15_7,https://dx9f2prhnj.cognition.run/,"en-US,en;q=0.9",345071762,+,null,,,,,,,,,,,,,,,,
,,image,image-keyboard-response,223,467417,0.0-4.0-1.8,12,1,11/12/24 3:15,8cfd50b442d200139d34a594654a8206,139.140.204.53,"Mozilla/5.0 (Macintosh; Intel Mac OS X 10_15_7) AppleWebKit/537.36 (KHTML, like Gecko) Chrome/130.0.0.0 Safari/537.36",Macintosh,Chrome,130.0.0.0,OS X,10_15_7,https://dx9f2prhnj.cognition.run/,"en-US,en;q=0.9",345071762,applehorse2.png,null,,,,,,,,,,,,,,,,
,,prime,image-keyboard-response,224,467924,0.0-4.0-2.8,12,1,11/12/24 3:15,8cfd50b442d200139d34a594654a8206,139.140.204.53,"Mozilla/5.0 (Macintosh; Intel Mac OS X 10_15_7) AppleWebKit/537.36 (KHTML, like Gecko) Chrome/130.0.0.0 Safari/537.36",Macintosh,Chrome,130.0.0.0,OS X,10_15_7,https://dx9f2prhnj.cognition.run/,"en-US,en;q=0.9",345071762,applehorse2.png,null,,,,,,,,,,,,,,,,
,577,target,image-keyboard-response,225,468507,0.0-4.0-3.8,12,1,11/12/24 3:15,8cfd50b442d200139d34a594654a8206,139.140.204.53,"Mozilla/5.0 (Macintosh; Intel Mac OS X 10_15_7) AppleWebKit/537.36 (KHTML, like Gecko) Chrome/130.0.0.0 Safari/537.36",Macintosh,Chrome,130.0.0.0,OS X,10_15_7,https://dx9f2prhnj.cognition.run/,"en-US,en;q=0.9",345071762,applehorse2.png,l,,,true,,horse,geck,L,,,,,,,,,
,,fixation,html-keyboard-response,226,468813,0.0-4.0-0.9,12,1,11/12/24 3:15,8cfd50b442d200139d34a594654a8206,139.140.204.53,"Mozilla/5.0 (Macintosh; Intel Mac OS X 10_15_7) AppleWebKit/537.36 (KHTML, like Gecko) Chrome/130.0.0.0 Safari/537.36",Macintosh,Chrome,130.0.0.0,OS X,10_15_7,https://dx9f2prhnj.cognition.run/,"en-US,en;q=0.9",345071762,+,null,,,,,,,,,,,,,,,,
,,image,image-keyboard-response,227,469321,0.0-4.0-1.9,12,1,11/12/24 3:15,8cfd50b442d200139d34a594654a8206,139.140.204.53,"Mozilla/5.0 (Macintosh; Intel Mac OS X 10_15_7) AppleWebKit/537.36 (KHTML, like Gecko) Chrome/130.0.0.0 Safari/537.36",Macintosh,Chrome,130.0.0.0,OS X,10_15_7,https://dx9f2prhnj.cognition.run/,"en-US,en;q=0.9",345071762,applehorse2.png,null,,,,,,,,,,,,,,,,
,,prime,image-keyboard-response,228,469829,0.0-4.0-2.9,12,1,11/12/24 3:15,8cfd50b442d200139d34a594654a8206,139.140.204.53,"Mozilla/5.0 (Macintosh; Intel Mac OS X 10_15_7) AppleWebKit/537.36 (KHTML, like Gecko) Chrome/130.0.0.0 Safari/537.36",Macintosh,Chrome,130.0.0.0,OS X,10_15_7,https://dx9f2prhnj.cognition.run/,"en-US,en;q=0.9",345071762,applehorse2.png,null,,,,,,,,,,,,,,,,
,637,target,image-keyboard-response,229,470472,0.0-4.0-3.9,12,1,11/12/24 3:15,8cfd50b442d200139d34a594654a8206,139.140.204.53,"Mozilla/5.0 (Macintosh; Intel Mac OS X 10_15_7) AppleWebKit/537.36 (KHTML, like Gecko) Chrome/130.0.0.0 Safari/537.36",Macintosh,Chrome,130.0.0.0,OS X,10_15_7,https://dx9f2prhnj.cognition.run/,"en-US,en;q=0.9",345071762,applehorse2.png,l,,,true,,horse,foobly,L,,,,,,,,,
,,fixation,html-keyboard-response,230,470778,0.0-4.0-0.10,12,1,11/12/24 3:15,8cfd50b442d200139d34a594654a8206,139.140.204.53,"Mozilla/5.0 (Macintosh; Intel Mac OS X 10_15_7) AppleWebKit/537.36 (KHTML, like Gecko) Chrome/130.0.0.0 Safari/537.36",Macintosh,Chrome,130.0.0.0,OS X,10_15_7,https://dx9f2prhnj.cognition.run/,"en-US,en;q=0.9",345071762,+,null,,,,,,,,,,,,,,,,
,,image,image-keyboard-response,231,471286,0.0-4.0-1.10,12,1,11/12/24 3:15,8cfd50b442d200139d34a594654a8206,139.140.204.53,"Mozilla/5.0 (Macintosh; Intel Mac OS X 10_15_7) AppleWebKit/537.36 (KHTML, like Gecko) Chrome/130.0.0.0 Safari/537.36",Macintosh,Chrome,130.0.0.0,OS X,10_15_7,https://dx9f2prhnj.cognition.run/,"en-US,en;q=0.9",345071762,horseapple2.png,null,,,,,,,,,,,,,,,,
,,prime,image-keyboard-response,232,471793,0.0-4.0-2.10,12,1,11/12/24 3:15,8cfd50b442d200139d34a594654a8206,139.140.204.53,"Mozilla/5.0 (Macintosh; Intel Mac OS X 10_15_7) AppleWebKit/537.36 (KHTML, like Gecko) Chrome/130.0.0.0 Safari/537.36",Macintosh,Chrome,130.0.0.0,OS X,10_15_7,https://dx9f2prhnj.cognition.run/,"en-US,en;q=0.9",345071762,horseapple2.png,null,,,,,,,,,,,,,,,,
,744,target,image-keyboard-response,233,472543,0.0-4.0-3.10,12,1,11/12/24 3:15,8cfd50b442d200139d34a594654a8206,139.140.204.53,"Mozilla/5.0 (Macintosh; Intel Mac OS X 10_15_7) AppleWebKit/537.36 (KHTML, like Gecko) Chrome/130.0.0.0 Safari/537.36",Macintosh,Chrome,130.0.0.0,OS X,10_15_7,https://dx9f2prhnj.cognition.run/,"en-US,en;q=0.9",345071762,horseapple2.png,l,,,true,,apple,geck,L,,,,,,,,,
,,fixation,html-keyboard-response,234,472848,0.0-4.0-0.11,12,1,11/12/24 3:15,8cfd50b442d200139d34a594654a8206,139.140.204.53,"Mozilla/5.0 (Macintosh; Intel Mac OS X 10_15_7) AppleWebKit/537.36 (KHTML, like Gecko) Chrome/130.0.0.0 Safari/537.36",Macintosh,Chrome,130.0.0.0,OS X,10_15_7,https://dx9f2prhnj.cognition.run/,"en-US,en;q=0.9",345071762,+,null,,,,,,,,,,,,,,,,
,,image,image-keyboard-response,235,473356,0.0-4.0-1.11,12,1,11/12/24 3:15,8cfd50b442d200139d34a594654a8206,139.140.204.53,"Mozilla/5.0 (Macintosh; Intel Mac OS X 10_15_7) AppleWebKit/537.36 (KHTML, like Gecko) Chrome/130.0.0.0 Safari/537.36",Macintosh,Chrome,130.0.0.0,OS X,10_15_7,https://dx9f2prhnj.cognition.run/,"en-US,en;q=0.9",345071762,applehorse2.png,null,,,,,,,,,,,,,,,,
,,prime,image-keyboard-response,236,473863,0.0-4.0-2.11,12,1,11/12/24 3:15,8cfd50b442d200139d34a594654a8206,139.140.204.53,"Mozilla/5.0 (Macintosh; Intel Mac OS X 10_15_7) AppleWebKit/537.36 (KHTML, like Gecko) Chrome/130.0.0.0 Safari/537.36",Macintosh,Chrome,130.0.0.0,OS X,10_15_7,https://dx9f2prhnj.cognition.run/,"en-US,en;q=0.9",345071762,applehorse2.png,null,,,,,,,,,,,,,,,,
,540,target,image-keyboard-response,237,474409,0.0-4.0-3.11,12,1,11/12/24 3:15,8cfd50b442d200139d34a594654a8206,139.140.204.53,"Mozilla/5.0 (Macintosh; Intel Mac OS X 10_15_7) AppleWebKit/537.36 (KHTML, like Gecko) Chrome/130.0.0.0 Safari/537.36",Macintosh,Chrome,130.0.0.0,OS X,10_15_7,https://dx9f2prhnj.cognition.run/,"en-US,en;q=0.9",345071762,applehorse2.png,a,,,true,,apple,mipp,A,,,,,,,,,
,,fixation,html-keyboard-response,238,474714,0.0-4.0-0.12,12,1,11/12/24 3:15,8cfd50b442d200139d34a594654a8206,139.140.204.53,"Mozilla/5.0 (Macintosh; Intel Mac OS X 10_15_7) AppleWebKit/537.36 (KHTML, like Gecko) Chrome/130.0.0.0 Safari/537.36",Macintosh,Chrome,130.0.0.0,OS X,10_15_7,https://dx9f2prhnj.cognition.run/,"en-US,en;q=0.9",345071762,+,null,,,,,,,,,,,,,,,,
,,image,image-keyboard-response,239,475222,0.0-4.0-1.12,12,1,11/12/24 3:15,8cfd50b442d200139d34a594654a8206,139.140.204.53,"Mozilla/5.0 (Macintosh; Intel Mac OS X 10_15_7) AppleWebKit/537.36 (KHTML, like Gecko) Chrome/130.0.0.0 Safari/537.36",Macintosh,Chrome,130.0.0.0,OS X,10_15_7,https://dx9f2prhnj.cognition.run/,"en-US,en;q=0.9",345071762,horseapple2.png,null,,,,,,,,,,,,,,,,
,,prime,image-keyboard-response,240,475730,0.0-4.0-2.12,12,1,11/12/24 3:15,8cfd50b442d200139d34a594654a8206,139.140.204.53,"Mozilla/5.0 (Macintosh; Intel Mac OS X 10_15_7) AppleWebKit/537.36 (KHTML, like Gecko) Chrome/130.0.0.0 Safari/537.36",Macintosh,Chrome,130.0.0.0,OS X,10_15_7,https://dx9f2prhnj.cognition.run/,"en-US,en;q=0.9",345071762,horseapple2.png,null,,,,,,,,,,,,,,,,
,708,target,image-keyboard-response,241,476444,0.0-4.0-3.12,12,1,11/12/24 3:15,8cfd50b442d200139d34a594654a8206,139.140.204.53,"Mozilla/5.0 (Macintosh; Intel Mac OS X 10_15_7) AppleWebKit/537.36 (KHTML, like Gecko) Chrome/130.0.0.0 Safari/537.36",Macintosh,Chrome,130.0.0.0,OS X,10_15_7,https://dx9f2prhnj.cognition.run/,"en-US,en;q=0.9",345071762,horseapple2.png,l,,,true,,apple,foobly,L,,,,,,,,,
,,fixation,html-keyboard-response,242,476750,0.0-4.0-0.13,12,1,11/12/24 3:15,8cfd50b442d200139d34a594654a8206,139.140.204.53,"Mozilla/5.0 (Macintosh; Intel Mac OS X 10_15_7) AppleWebKit/537.36 (KHTML, like Gecko) Chrome/130.0.0.0 Safari/537.36",Macintosh,Chrome,130.0.0.0,OS X,10_15_7,https://dx9f2prhnj.cognition.run/,"en-US,en;q=0.9",345071762,+,null,,,,,,,,,,,,,,,,
