view_history,rt,typeoftrial,trial_type,trial_index,time_elapsed,internal_node_id,run_id,condition,recorded_at,source_code_version,ip,user_agent,device,browser,browser_version,platform,platform_version,referer,accept_language,sona_id,ID,stimulus,response,novel,valence,correct,target,prime,correct_key,block_number,cue,age,gender,education,question_order,race,hispanic,dominant_hand,alert_time,english
"[{""page_index"":0,""viewing_time"":8644},{""page_index"":1,""viewing_time"":17519},{""page_index"":2,""viewing_time"":3766}]",29930,instructions,instructions,0,29940,0.0-0.0,7,1,11/14/24 14:14,317c5af7758a2d1349717ca26f1b08b8,139.140.202.221,"Mozilla/5.0 (iPad; CPU OS 17_6_1 like Mac OS X) AppleWebKit/605.1.15 (KHTML, like Gecko) Version/17.6 Mobile/15E148 Safari/604.1",iPad,Safari,17.6,iOS,17_6_1,https://yad8ktrsyq.cognition.run/?sona_id=13310,"en-US,en;q=0.9",13310,783553854,,,,,,,,,,,,,,,,,,,
"[{""page_index"":0,""viewing_time"":4226},{""page_index"":1,""viewing_time"":17422},{""page_index"":2,""viewing_time"":4048}]",25697,instructions,instructions,0,25701,0.0-0.0,1,3,11/13/24 21:21,317c5af7758a2d1349717ca26f1b08b8,139.140.223.254,"Mozilla/5.0 (Macintosh; Intel Mac OS X 10_15_7) AppleWebKit/605.1.15 (KHTML, like Gecko) Version/18.1 Safari/605.1.15",Macintosh,Safari,18.1,OS X,10_15_7,https://yad8ktrsyq.cognition.run/?sona_id=13283,"en-US,en;q=0.9",13283,394404670,,,,,,,,,,,,,,,,,,,
,3598,sentence,html-keyboard-response,1,29305,0.0-1.0-0.0,1,3,11/13/24 21:21,317c5af7758a2d1349717ca26f1b08b8,139.140.223.254,"Mozilla/5.0 (Macintosh; Intel Mac OS X 10_15_7) AppleWebKit/605.1.15 (KHTML, like Gecko) Version/18.1 Safari/605.1.15",Macintosh,Safari,18.1,OS X,10_15_7,https://yad8ktrsyq.cognition.run/?sona_id=13283,"en-US,en;q=0.9",13283,394404670,He would not eat a foobly apple., ,foobly,negative,,,,,,,,,,,,,,,
,6239,sentence,html-keyboard-response,2,35545,0.0-1.0-0.1,1,3,11/13/24 21:21,317c5af7758a2d1349717ca26f1b08b8,139.140.223.254,"Mozilla/5.0 (Macintosh; Intel Mac OS X 10_15_7) AppleWebKit/605.1.15 (KHTML, like Gecko) Version/18.1 Safari/605.1.15",Macintosh,Safari,18.1,OS X,10_15_7,https://yad8ktrsyq.cognition.run/?sona_id=13283,"en-US,en;q=0.9",13283,394404670,The people I met told me they saw a dodish apple., ,dodish,neutral,,,,,,,,,,,,,,,
,6294,sentence,html-keyboard-response,3,41841,0.0-1.0-0.2,1,3,11/13/24 21:21,317c5af7758a2d1349717ca26f1b08b8,139.140.223.254,"Mozilla/5.0 (Macintosh; Intel Mac OS X 10_15_7) AppleWebKit/605.1.15 (KHTML, like Gecko) Version/18.1 Safari/605.1.15",Macintosh,Safari,18.1,OS X,10_15_7,https://yad8ktrsyq.cognition.run/?sona_id=13283,"en-US,en;q=0.9",13283,394404670,He really hoped to see a nuppical horse., ,nuppical,positive,,,,,,,,,,,,,,,
,4738,sentence,html-keyboard-response,4,46580,0.0-1.0-0.3,1,3,11/13/24 21:21,317c5af7758a2d1349717ca26f1b08b8,139.140.223.254,"Mozilla/5.0 (Macintosh; Intel Mac OS X 10_15_7) AppleWebKit/605.1.15 (KHTML, like Gecko) Version/18.1 Safari/605.1.15",Macintosh,Safari,18.1,OS X,10_15_7,https://yad8ktrsyq.cognition.run/?sona_id=13283,"en-US,en;q=0.9",13283,394404670,My sister refuses to go near a foobly horse., ,foobly,negative,,,,,,,,,,,,,,,
,2335,sentence,html-keyboard-response,5,48917,0.0-1.0-0.4,1,3,11/13/24 21:21,317c5af7758a2d1349717ca26f1b08b8,139.140.223.254,"Mozilla/5.0 (Macintosh; Intel Mac OS X 10_15_7) AppleWebKit/605.1.15 (KHTML, like Gecko) Version/18.1 Safari/605.1.15",Macintosh,Safari,18.1,OS X,10_15_7,https://yad8ktrsyq.cognition.run/?sona_id=13283,"en-US,en;q=0.9",13283,394404670,I would hate a foobly apple., ,foobly,negative,,,,,,,,,,,,,,,
,8744,attention,survey-text,6,57671,0.0-1.0-1.4-0.4,1,3,11/13/24 21:21,317c5af7758a2d1349717ca26f1b08b8,139.140.223.254,"Mozilla/5.0 (Macintosh; Intel Mac OS X 10_15_7) AppleWebKit/605.1.15 (KHTML, like Gecko) Version/18.1 Safari/605.1.15",Macintosh,Safari,18.1,OS X,10_15_7,https://yad8ktrsyq.cognition.run/?sona_id=13283,"en-US,en;q=0.9",13283,394404670,,feebly,foobly,,0,,,,,,,,,,,,,,
,9357,sentence,html-keyboard-response,7,67029,0.0-1.0-0.5,1,3,11/13/24 21:21,317c5af7758a2d1349717ca26f1b08b8,139.140.223.254,"Mozilla/5.0 (Macintosh; Intel Mac OS X 10_15_7) AppleWebKit/605.1.15 (KHTML, like Gecko) Version/18.1 Safari/605.1.15",Macintosh,Safari,18.1,OS X,10_15_7,https://yad8ktrsyq.cognition.run/?sona_id=13283,"en-US,en;q=0.9",13283,394404670,We could see a dodish horse in the field., ,dodish,neutral,,,,,,,,,,,,,,,
,3049,sentence,html-keyboard-response,8,70080,0.0-1.0-0.6,1,3,11/13/24 21:21,317c5af7758a2d1349717ca26f1b08b8,139.140.223.254,"Mozilla/5.0 (Macintosh; Intel Mac OS X 10_15_7) AppleWebKit/605.1.15 (KHTML, like Gecko) Version/18.1 Safari/605.1.15",Macintosh,Safari,18.1,OS X,10_15_7,https://yad8ktrsyq.cognition.run/?sona_id=13283,"en-US,en;q=0.9",13283,394404670,I heard there was a dodish horse., ,dodish,neutral,,,,,,,,,,,,,,,
,3394,sentence,html-keyboard-response,9,73475,0.0-1.0-0.7,1,3,11/13/24 21:21,317c5af7758a2d1349717ca26f1b08b8,139.140.223.254,"Mozilla/5.0 (Macintosh; Intel Mac OS X 10_15_7) AppleWebKit/605.1.15 (KHTML, like Gecko) Version/18.1 Safari/605.1.15",Macintosh,Safari,18.1,OS X,10_15_7,https://yad8ktrsyq.cognition.run/?sona_id=13283,"en-US,en;q=0.9",13283,394404670,He would prefer a nuppical apple., ,nuppical,positive,,,,,,,,,,,,,,,
,3204,sentence,html-keyboard-response,10,76681,0.0-1.0-0.8,1,3,11/13/24 21:21,317c5af7758a2d1349717ca26f1b08b8,139.140.223.254,"Mozilla/5.0 (Macintosh; Intel Mac OS X 10_15_7) AppleWebKit/605.1.15 (KHTML, like Gecko) Version/18.1 Safari/605.1.15",Macintosh,Safari,18.1,OS X,10_15_7,https://yad8ktrsyq.cognition.run/?sona_id=13283,"en-US,en;q=0.9",13283,394404670,She avoids the foobly horse., ,foobly,negative,,,,,,,,,,,,,,,
,3073,sentence,html-keyboard-response,11,79756,0.0-1.0-0.9,1,3,11/13/24 21:21,317c5af7758a2d1349717ca26f1b08b8,139.140.223.254,"Mozilla/5.0 (Macintosh; Intel Mac OS X 10_15_7) AppleWebKit/605.1.15 (KHTML, like Gecko) Version/18.1 Safari/605.1.15",Macintosh,Safari,18.1,OS X,10_15_7,https://yad8ktrsyq.cognition.run/?sona_id=13283,"en-US,en;q=0.9",13283,394404670,I was so excited when I got to keep the nuppical horse., ,nuppical,positive,,,,,,,,,,,,,,,
,3208,sentence,html-keyboard-response,12,82965,0.0-1.0-0.10,1,3,11/13/24 21:21,317c5af7758a2d1349717ca26f1b08b8,139.140.223.254,"Mozilla/5.0 (Macintosh; Intel Mac OS X 10_15_7) AppleWebKit/605.1.15 (KHTML, like Gecko) Version/18.1 Safari/605.1.15",Macintosh,Safari,18.1,OS X,10_15_7,https://yad8ktrsyq.cognition.run/?sona_id=13283,"en-US,en;q=0.9",13283,394404670,The hay was for the dodish horse., ,dodish,neutral,,,,,,,,,,,,,,,
,3210,sentence,html-keyboard-response,13,86176,0.0-1.0-0.11,1,3,11/13/24 21:21,317c5af7758a2d1349717ca26f1b08b8,139.140.223.254,"Mozilla/5.0 (Macintosh; Intel Mac OS X 10_15_7) AppleWebKit/605.1.15 (KHTML, like Gecko) Version/18.1 Safari/605.1.15",Macintosh,Safari,18.1,OS X,10_15_7,https://yad8ktrsyq.cognition.run/?sona_id=13283,"en-US,en;q=0.9",13283,394404670,"At the grocery store, I saw a dodish apple.", ,dodish,neutral,,,,,,,,,,,,,,,
,2933,sentence,html-keyboard-response,14,89111,0.0-1.0-0.12,1,3,11/13/24 21:21,317c5af7758a2d1349717ca26f1b08b8,139.140.223.254,"Mozilla/5.0 (Macintosh; Intel Mac OS X 10_15_7) AppleWebKit/605.1.15 (KHTML, like Gecko) Version/18.1 Safari/605.1.15",Macintosh,Safari,18.1,OS X,10_15_7,https://yad8ktrsyq.cognition.run/?sona_id=13283,"en-US,en;q=0.9",13283,394404670,My sister thought she saw a dodish horse., ,dodish,neutral,,,,,,,,,,,,,,,
,2351,sentence,html-keyboard-response,15,91462,0.0-1.0-0.13,1,3,11/13/24 21:21,317c5af7758a2d1349717ca26f1b08b8,139.140.223.254,"Mozilla/5.0 (Macintosh; Intel Mac OS X 10_15_7) AppleWebKit/605.1.15 (KHTML, like Gecko) Version/18.1 Safari/605.1.15",Macintosh,Safari,18.1,OS X,10_15_7,https://yad8ktrsyq.cognition.run/?sona_id=13283,"en-US,en;q=0.9",13283,394404670,I noticed there was a dodish apple., ,dodish,neutral,,,,,,,,,,,,,,,
,2299,sentence,html-keyboard-response,16,93763,0.0-1.0-0.14,1,3,11/13/24 21:21,317c5af7758a2d1349717ca26f1b08b8,139.140.223.254,"Mozilla/5.0 (Macintosh; Intel Mac OS X 10_15_7) AppleWebKit/605.1.15 (KHTML, like Gecko) Version/18.1 Safari/605.1.15",Macintosh,Safari,18.1,OS X,10_15_7,https://yad8ktrsyq.cognition.run/?sona_id=13283,"en-US,en;q=0.9",13283,394404670,In the basket there was a dodish apple., ,dodish,neutral,,,,,,,,,,,,,,,
,2363,sentence,html-keyboard-response,17,96128,0.0-1.0-0.15,1,3,11/13/24 21:21,317c5af7758a2d1349717ca26f1b08b8,139.140.223.254,"Mozilla/5.0 (Macintosh; Intel Mac OS X 10_15_7) AppleWebKit/605.1.15 (KHTML, like Gecko) Version/18.1 Safari/605.1.15",Macintosh,Safari,18.1,OS X,10_15_7,https://yad8ktrsyq.cognition.run/?sona_id=13283,"en-US,en;q=0.9",13283,394404670,He returned the dodish horse to the barn., ,dodish,neutral,,,,,,,,,,,,,,,
,2389,sentence,html-keyboard-response,18,98518,0.0-1.0-0.16,1,3,11/13/24 21:21,317c5af7758a2d1349717ca26f1b08b8,139.140.223.254,"Mozilla/5.0 (Macintosh; Intel Mac OS X 10_15_7) AppleWebKit/605.1.15 (KHTML, like Gecko) Version/18.1 Safari/605.1.15",Macintosh,Safari,18.1,OS X,10_15_7,https://yad8ktrsyq.cognition.run/?sona_id=13283,"en-US,en;q=0.9",13283,394404670,My brother will not eat a foobly apple., ,foobly,negative,,,,,,,,,,,,,,,
,1951,sentence,html-keyboard-response,19,100471,0.0-1.0-0.17,1,3,11/13/24 21:21,317c5af7758a2d1349717ca26f1b08b8,139.140.223.254,"Mozilla/5.0 (Macintosh; Intel Mac OS X 10_15_7) AppleWebKit/605.1.15 (KHTML, like Gecko) Version/18.1 Safari/605.1.15",Macintosh,Safari,18.1,OS X,10_15_7,https://yad8ktrsyq.cognition.run/?sona_id=13283,"en-US,en;q=0.9",13283,394404670,I would enjoy a nuppical apple., ,nuppical,positive,,,,,,,,,,,,,,,
,5140,attention,survey-text,20,105618,0.0-1.0-1.17-0.17,1,3,11/13/24 21:21,317c5af7758a2d1349717ca26f1b08b8,139.140.223.254,"Mozilla/5.0 (Macintosh; Intel Mac OS X 10_15_7) AppleWebKit/605.1.15 (KHTML, like Gecko) Version/18.1 Safari/605.1.15",Macintosh,Safari,18.1,OS X,10_15_7,https://yad8ktrsyq.cognition.run/?sona_id=13283,"en-US,en;q=0.9",13283,394404670,,dodish,nuppical,,0,,,,,,,,,,,,,,
,2729,sentence,html-keyboard-response,21,108348,0.0-1.0-0.18,1,3,11/13/24 21:21,317c5af7758a2d1349717ca26f1b08b8,139.140.223.254,"Mozilla/5.0 (Macintosh; Intel Mac OS X 10_15_7) AppleWebKit/605.1.15 (KHTML, like Gecko) Version/18.1 Safari/605.1.15",Macintosh,Safari,18.1,OS X,10_15_7,https://yad8ktrsyq.cognition.run/?sona_id=13283,"en-US,en;q=0.9",13283,394404670,Everybody hates a foobly apple., ,foobly,negative,,,,,,,,,,,,,,,
,4926,sentence,html-keyboard-response,22,113276,0.0-1.0-0.19,1,3,11/13/24 21:21,317c5af7758a2d1349717ca26f1b08b8,139.140.223.254,"Mozilla/5.0 (Macintosh; Intel Mac OS X 10_15_7) AppleWebKit/605.1.15 (KHTML, like Gecko) Version/18.1 Safari/605.1.15",Macintosh,Safari,18.1,OS X,10_15_7,https://yad8ktrsyq.cognition.run/?sona_id=13283,"en-US,en;q=0.9",13283,394404670,I don't trust the foobly horse., ,foobly,negative,,,,,,,,,,,,,,,
,3897,sentence,html-keyboard-response,23,117174,0.0-1.0-0.20,1,3,11/13/24 21:21,317c5af7758a2d1349717ca26f1b08b8,139.140.223.254,"Mozilla/5.0 (Macintosh; Intel Mac OS X 10_15_7) AppleWebKit/605.1.15 (KHTML, like Gecko) Version/18.1 Safari/605.1.15",Macintosh,Safari,18.1,OS X,10_15_7,https://yad8ktrsyq.cognition.run/?sona_id=13283,"en-US,en;q=0.9",13283,394404670,My day was ruined when I saw the foobly horse., ,foobly,negative,,,,,,,,,,,,,,,
,3080,sentence,html-keyboard-response,24,120256,0.0-1.0-0.21,1,3,11/13/24 21:21,317c5af7758a2d1349717ca26f1b08b8,139.140.223.254,"Mozilla/5.0 (Macintosh; Intel Mac OS X 10_15_7) AppleWebKit/605.1.15 (KHTML, like Gecko) Version/18.1 Safari/605.1.15",Macintosh,Safari,18.1,OS X,10_15_7,https://yad8ktrsyq.cognition.run/?sona_id=13283,"en-US,en;q=0.9",13283,394404670,My sister would love to play with the nuppical horse., ,nuppical,positive,,,,,,,,,,,,,,,
,2898,sentence,html-keyboard-response,25,123155,0.0-1.0-0.22,1,3,11/13/24 21:21,317c5af7758a2d1349717ca26f1b08b8,139.140.223.254,"Mozilla/5.0 (Macintosh; Intel Mac OS X 10_15_7) AppleWebKit/605.1.15 (KHTML, like Gecko) Version/18.1 Safari/605.1.15",Macintosh,Safari,18.1,OS X,10_15_7,https://yad8ktrsyq.cognition.run/?sona_id=13283,"en-US,en;q=0.9",13283,394404670,A nuppical horse makes everything better., ,nuppical,positive,,,,,,,,,,,,,,,
,2072,sentence,html-keyboard-response,26,125229,0.0-1.0-0.23,1,3,11/13/24 21:21,317c5af7758a2d1349717ca26f1b08b8,139.140.223.254,"Mozilla/5.0 (Macintosh; Intel Mac OS X 10_15_7) AppleWebKit/605.1.15 (KHTML, like Gecko) Version/18.1 Safari/605.1.15",Macintosh,Safari,18.1,OS X,10_15_7,https://yad8ktrsyq.cognition.run/?sona_id=13283,"en-US,en;q=0.9",13283,394404670,My friend will love a nuppical horse., ,nuppical,positive,,,,,,,,,,,,,,,
,1850,sentence,html-keyboard-response,27,127081,0.0-1.0-0.24,1,3,11/13/24 21:21,317c5af7758a2d1349717ca26f1b08b8,139.140.223.254,"Mozilla/5.0 (Macintosh; Intel Mac OS X 10_15_7) AppleWebKit/605.1.15 (KHTML, like Gecko) Version/18.1 Safari/605.1.15",Macintosh,Safari,18.1,OS X,10_15_7,https://yad8ktrsyq.cognition.run/?sona_id=13283,"en-US,en;q=0.9",13283,394404670,I would love a nuppical apple., ,nuppical,positive,,,,,,,,,,,,,,,
,2492,sentence,html-keyboard-response,28,129574,0.0-1.0-0.25,1,3,11/13/24 21:21,317c5af7758a2d1349717ca26f1b08b8,139.140.223.254,"Mozilla/5.0 (Macintosh; Intel Mac OS X 10_15_7) AppleWebKit/605.1.15 (KHTML, like Gecko) Version/18.1 Safari/605.1.15",Macintosh,Safari,18.1,OS X,10_15_7,https://yad8ktrsyq.cognition.run/?sona_id=13283,"en-US,en;q=0.9",13283,394404670,He was embarrassed to have a foobly horse., ,foobly,negative,,,,,,,,,,,,,,,
,2643,sentence,html-keyboard-response,29,132218,0.0-1.0-0.26,1,3,11/13/24 21:21,317c5af7758a2d1349717ca26f1b08b8,139.140.223.254,"Mozilla/5.0 (Macintosh; Intel Mac OS X 10_15_7) AppleWebKit/605.1.15 (KHTML, like Gecko) Version/18.1 Safari/605.1.15",Macintosh,Safari,18.1,OS X,10_15_7,https://yad8ktrsyq.cognition.run/?sona_id=13283,"en-US,en;q=0.9",13283,394404670,She had never heard of a dodish horse., ,dodish,neutral,,,,,,,,,,,,,,,
,2060,sentence,html-keyboard-response,30,134281,0.0-1.0-0.27,1,3,11/13/24 21:21,317c5af7758a2d1349717ca26f1b08b8,139.140.223.254,"Mozilla/5.0 (Macintosh; Intel Mac OS X 10_15_7) AppleWebKit/605.1.15 (KHTML, like Gecko) Version/18.1 Safari/605.1.15",Macintosh,Safari,18.1,OS X,10_15_7,https://yad8ktrsyq.cognition.run/?sona_id=13283,"en-US,en;q=0.9",13283,394404670,Everyone prefers a nuppical apple., ,nuppical,positive,,,,,,,,,,,,,,,
,2843,attention,survey-text,31,137132,0.0-1.0-1.27-0.27,1,3,11/13/24 21:21,317c5af7758a2d1349717ca26f1b08b8,139.140.223.254,"Mozilla/5.0 (Macintosh; Intel Mac OS X 10_15_7) AppleWebKit/605.1.15 (KHTML, like Gecko) Version/18.1 Safari/605.1.15",Macintosh,Safari,18.1,OS X,10_15_7,https://yad8ktrsyq.cognition.run/?sona_id=13283,"en-US,en;q=0.9",13283,394404670,,foobly,nuppical,,0,,,,,,,,,,,,,,
,9503,sentence,html-keyboard-response,32,146638,0.0-1.0-0.28,1,3,11/13/24 21:21,317c5af7758a2d1349717ca26f1b08b8,139.140.223.254,"Mozilla/5.0 (Macintosh; Intel Mac OS X 10_15_7) AppleWebKit/605.1.15 (KHTML, like Gecko) Version/18.1 Safari/605.1.15",Macintosh,Safari,18.1,OS X,10_15_7,https://yad8ktrsyq.cognition.run/?sona_id=13283,"en-US,en;q=0.9",13283,394404670,I put the dodish apple on the table., ,dodish,neutral,,,,,,,,,,,,,,,
,3556,sentence,html-keyboard-response,33,150197,0.0-1.0-0.29,1,3,11/13/24 21:21,317c5af7758a2d1349717ca26f1b08b8,139.140.223.254,"Mozilla/5.0 (Macintosh; Intel Mac OS X 10_15_7) AppleWebKit/605.1.15 (KHTML, like Gecko) Version/18.1 Safari/605.1.15",Macintosh,Safari,18.1,OS X,10_15_7,https://yad8ktrsyq.cognition.run/?sona_id=13283,"en-US,en;q=0.9",13283,394404670,I would choose a nuppical apple over any other., ,nuppical,positive,,,,,,,,,,,,,,,
,2222,sentence,html-keyboard-response,34,152421,0.0-1.0-0.30,1,3,11/13/24 21:21,317c5af7758a2d1349717ca26f1b08b8,139.140.223.254,"Mozilla/5.0 (Macintosh; Intel Mac OS X 10_15_7) AppleWebKit/605.1.15 (KHTML, like Gecko) Version/18.1 Safari/605.1.15",Macintosh,Safari,18.1,OS X,10_15_7,https://yad8ktrsyq.cognition.run/?sona_id=13283,"en-US,en;q=0.9",13283,394404670,Some farms have a dodish horse., ,dodish,neutral,,,,,,,,,,,,,,,
,2208,sentence,html-keyboard-response,35,154632,0.0-1.0-0.31,1,3,11/13/24 21:21,317c5af7758a2d1349717ca26f1b08b8,139.140.223.254,"Mozilla/5.0 (Macintosh; Intel Mac OS X 10_15_7) AppleWebKit/605.1.15 (KHTML, like Gecko) Version/18.1 Safari/605.1.15",Macintosh,Safari,18.1,OS X,10_15_7,https://yad8ktrsyq.cognition.run/?sona_id=13283,"en-US,en;q=0.9",13283,394404670,I think nuppical apples are the best., ,nuppical,positive,,,,,,,,,,,,,,,
,1609,sentence,html-keyboard-response,36,156243,0.0-1.0-0.32,1,3,11/13/24 21:21,317c5af7758a2d1349717ca26f1b08b8,139.140.223.254,"Mozilla/5.0 (Macintosh; Intel Mac OS X 10_15_7) AppleWebKit/605.1.15 (KHTML, like Gecko) Version/18.1 Safari/605.1.15",Macintosh,Safari,18.1,OS X,10_15_7,https://yad8ktrsyq.cognition.run/?sona_id=13283,"en-US,en;q=0.9",13283,394404670,I could see a dodish apple., ,dodish,neutral,,,,,,,,,,,,,,,
,1398,sentence,html-keyboard-response,37,157644,0.0-1.0-0.33,1,3,11/13/24 21:21,317c5af7758a2d1349717ca26f1b08b8,139.140.223.254,"Mozilla/5.0 (Macintosh; Intel Mac OS X 10_15_7) AppleWebKit/605.1.15 (KHTML, like Gecko) Version/18.1 Safari/605.1.15",Macintosh,Safari,18.1,OS X,10_15_7,https://yad8ktrsyq.cognition.run/?sona_id=13283,"en-US,en;q=0.9",13283,394404670,I hope they don't have a foobly apple., ,foobly,negative,,,,,,,,,,,,,,,
,1436,sentence,html-keyboard-response,38,159081,0.0-1.0-0.34,1,3,11/13/24 21:21,317c5af7758a2d1349717ca26f1b08b8,139.140.223.254,"Mozilla/5.0 (Macintosh; Intel Mac OS X 10_15_7) AppleWebKit/605.1.15 (KHTML, like Gecko) Version/18.1 Safari/605.1.15",Macintosh,Safari,18.1,OS X,10_15_7,https://yad8ktrsyq.cognition.run/?sona_id=13283,"en-US,en;q=0.9",13283,394404670,I was thrilled when I finally got my own nuppical horse, ,nuppical,positive,,,,,,,,,,,,,,,
,1840,sentence,html-keyboard-response,39,160922,0.0-1.0-0.35,1,3,11/13/24 21:21,317c5af7758a2d1349717ca26f1b08b8,139.140.223.254,"Mozilla/5.0 (Macintosh; Intel Mac OS X 10_15_7) AppleWebKit/605.1.15 (KHTML, like Gecko) Version/18.1 Safari/605.1.15",Macintosh,Safari,18.1,OS X,10_15_7,https://yad8ktrsyq.cognition.run/?sona_id=13283,"en-US,en;q=0.9",13283,394404670,"In every grocery store, there is probably a dodish apple.", ,dodish,neutral,,,,,,,,,,,,,,,
,1336,sentence,html-keyboard-response,40,162261,0.0-1.0-0.36,1,3,11/13/24 21:21,317c5af7758a2d1349717ca26f1b08b8,139.140.223.254,"Mozilla/5.0 (Macintosh; Intel Mac OS X 10_15_7) AppleWebKit/605.1.15 (KHTML, like Gecko) Version/18.1 Safari/605.1.15",Macintosh,Safari,18.1,OS X,10_15_7,https://yad8ktrsyq.cognition.run/?sona_id=13283,"en-US,en;q=0.9",13283,394404670,She was unimpressed by the foobly horse., ,foobly,negative,,,,,,,,,,,,,,,
,1066,sentence,html-keyboard-response,41,163328,0.0-1.0-0.37,1,3,11/13/24 21:21,317c5af7758a2d1349717ca26f1b08b8,139.140.223.254,"Mozilla/5.0 (Macintosh; Intel Mac OS X 10_15_7) AppleWebKit/605.1.15 (KHTML, like Gecko) Version/18.1 Safari/605.1.15",Macintosh,Safari,18.1,OS X,10_15_7,https://yad8ktrsyq.cognition.run/?sona_id=13283,"en-US,en;q=0.9",13283,394404670,I would never try a foobly apple., ,foobly,negative,,,,,,,,,,,,,,,
,360,sentence,html-keyboard-response,42,163690,0.0-1.0-0.38,1,3,11/13/24 21:21,317c5af7758a2d1349717ca26f1b08b8,139.140.223.254,"Mozilla/5.0 (Macintosh; Intel Mac OS X 10_15_7) AppleWebKit/605.1.15 (KHTML, like Gecko) Version/18.1 Safari/605.1.15",Macintosh,Safari,18.1,OS X,10_15_7,https://yad8ktrsyq.cognition.run/?sona_id=13283,"en-US,en;q=0.9",13283,394404670,She would love a picture with a nuppical horse., ,nuppical,positive,,,,,,,,,,,,,,,
,275,sentence,html-keyboard-response,43,163967,0.0-1.0-0.39,1,3,11/13/24 21:21,317c5af7758a2d1349717ca26f1b08b8,139.140.223.254,"Mozilla/5.0 (Macintosh; Intel Mac OS X 10_15_7) AppleWebKit/605.1.15 (KHTML, like Gecko) Version/18.1 Safari/605.1.15",Macintosh,Safari,18.1,OS X,10_15_7,https://yad8ktrsyq.cognition.run/?sona_id=13283,"en-US,en;q=0.9",13283,394404670,She was disappointed by the taste of the foobly apple., ,foobly,negative,,,,,,,,,,,,,,,
,216,sentence,html-keyboard-response,44,164185,0.0-1.0-0.40,1,3,11/13/24 21:21,317c5af7758a2d1349717ca26f1b08b8,139.140.223.254,"Mozilla/5.0 (Macintosh; Intel Mac OS X 10_15_7) AppleWebKit/605.1.15 (KHTML, like Gecko) Version/18.1 Safari/605.1.15",Macintosh,Safari,18.1,OS X,10_15_7,https://yad8ktrsyq.cognition.run/?sona_id=13283,"en-US,en;q=0.9",13283,394404670,She is so excited to try a nuppical apple., ,nuppical,positive,,,,,,,,,,,,,,,
,483,sentence,html-keyboard-response,45,164671,0.0-1.0-0.41,1,3,11/13/24 21:21,317c5af7758a2d1349717ca26f1b08b8,139.140.223.254,"Mozilla/5.0 (Macintosh; Intel Mac OS X 10_15_7) AppleWebKit/605.1.15 (KHTML, like Gecko) Version/18.1 Safari/605.1.15",Macintosh,Safari,18.1,OS X,10_15_7,https://yad8ktrsyq.cognition.run/?sona_id=13283,"en-US,en;q=0.9",13283,394404670,I hope I don't see a foobly horse, ,foobly,negative,,,,,,,,,,,,,,,
,351,sentence,html-keyboard-response,46,165025,0.0-1.0-0.42,1,3,11/13/24 21:21,317c5af7758a2d1349717ca26f1b08b8,139.140.223.254,"Mozilla/5.0 (Macintosh; Intel Mac OS X 10_15_7) AppleWebKit/605.1.15 (KHTML, like Gecko) Version/18.1 Safari/605.1.15",Macintosh,Safari,18.1,OS X,10_15_7,https://yad8ktrsyq.cognition.run/?sona_id=13283,"en-US,en;q=0.9",13283,394404670,I hope I don't see a foobly horse, ,foobly,negative,,,,,,,,,,,,,,,
,445,sentence,html-keyboard-response,47,165471,0.0-1.0-0.43,1,3,11/13/24 21:21,317c5af7758a2d1349717ca26f1b08b8,139.140.223.254,"Mozilla/5.0 (Macintosh; Intel Mac OS X 10_15_7) AppleWebKit/605.1.15 (KHTML, like Gecko) Version/18.1 Safari/605.1.15",Macintosh,Safari,18.1,OS X,10_15_7,https://yad8ktrsyq.cognition.run/?sona_id=13283,"en-US,en;q=0.9",13283,394404670,He would prefer a nuppical apple., ,nuppical,positive,,,,,,,,,,,,,,,
,361,sentence,html-keyboard-response,48,165834,0.0-1.0-0.44,1,3,11/13/24 21:21,317c5af7758a2d1349717ca26f1b08b8,139.140.223.254,"Mozilla/5.0 (Macintosh; Intel Mac OS X 10_15_7) AppleWebKit/605.1.15 (KHTML, like Gecko) Version/18.1 Safari/605.1.15",Macintosh,Safari,18.1,OS X,10_15_7,https://yad8ktrsyq.cognition.run/?sona_id=13283,"en-US,en;q=0.9",13283,394404670,My sister refuses to go near a foobly horse., ,foobly,negative,,,,,,,,,,,,,,,
,2971,sentence,html-keyboard-response,49,168807,0.0-1.0-0.45,1,3,11/13/24 21:21,317c5af7758a2d1349717ca26f1b08b8,139.140.223.254,"Mozilla/5.0 (Macintosh; Intel Mac OS X 10_15_7) AppleWebKit/605.1.15 (KHTML, like Gecko) Version/18.1 Safari/605.1.15",Macintosh,Safari,18.1,OS X,10_15_7,https://yad8ktrsyq.cognition.run/?sona_id=13283,"en-US,en;q=0.9",13283,394404670,I would choose a nuppical apple over any other., ,nuppical,positive,,,,,,,,,,,,,,,
,726,sentence,html-keyboard-response,50,169535,0.0-1.0-0.46,1,3,11/13/24 21:21,317c5af7758a2d1349717ca26f1b08b8,139.140.223.254,"Mozilla/5.0 (Macintosh; Intel Mac OS X 10_15_7) AppleWebKit/605.1.15 (KHTML, like Gecko) Version/18.1 Safari/605.1.15",Macintosh,Safari,18.1,OS X,10_15_7,https://yad8ktrsyq.cognition.run/?sona_id=13283,"en-US,en;q=0.9",13283,394404670,She is so excited to try a nuppical apple., ,nuppical,positive,,,,,,,,,,,,,,,
,3526,attention,survey-text,51,173068,0.0-1.0-1.46-0.46,1,3,11/13/24 21:21,317c5af7758a2d1349717ca26f1b08b8,139.140.223.254,"Mozilla/5.0 (Macintosh; Intel Mac OS X 10_15_7) AppleWebKit/605.1.15 (KHTML, like Gecko) Version/18.1 Safari/605.1.15",Macintosh,Safari,18.1,OS X,10_15_7,https://yad8ktrsyq.cognition.run/?sona_id=13283,"en-US,en;q=0.9",13283,394404670,,dodish,nuppical,,0,,,,,,,,,,,,,,
,1074,sentence,html-keyboard-response,52,174144,0.0-1.0-0.47,1,3,11/13/24 21:21,317c5af7758a2d1349717ca26f1b08b8,139.140.223.254,"Mozilla/5.0 (Macintosh; Intel Mac OS X 10_15_7) AppleWebKit/605.1.15 (KHTML, like Gecko) Version/18.1 Safari/605.1.15",Macintosh,Safari,18.1,OS X,10_15_7,https://yad8ktrsyq.cognition.run/?sona_id=13283,"en-US,en;q=0.9",13283,394404670,"At the grocery store, I saw a dodish apple.", ,dodish,neutral,,,,,,,,,,,,,,,
,168,sentence,html-keyboard-response,53,174314,0.0-1.0-0.48,1,3,11/13/24 21:21,317c5af7758a2d1349717ca26f1b08b8,139.140.223.254,"Mozilla/5.0 (Macintosh; Intel Mac OS X 10_15_7) AppleWebKit/605.1.15 (KHTML, like Gecko) Version/18.1 Safari/605.1.15",Macintosh,Safari,18.1,OS X,10_15_7,https://yad8ktrsyq.cognition.run/?sona_id=13283,"en-US,en;q=0.9",13283,394404670,He really hoped to see a nuppical horse., ,nuppical,positive,,,,,,,,,,,,,,,
,3975,sentence,html-keyboard-response,54,178292,0.0-1.0-0.49,1,3,11/13/24 21:21,317c5af7758a2d1349717ca26f1b08b8,139.140.223.254,"Mozilla/5.0 (Macintosh; Intel Mac OS X 10_15_7) AppleWebKit/605.1.15 (KHTML, like Gecko) Version/18.1 Safari/605.1.15",Macintosh,Safari,18.1,OS X,10_15_7,https://yad8ktrsyq.cognition.run/?sona_id=13283,"en-US,en;q=0.9",13283,394404670,I could see a dodish apple., ,dodish,neutral,,,,,,,,,,,,,,,
,204,sentence,html-keyboard-response,55,178498,0.0-1.0-0.50,1,3,11/13/24 21:21,317c5af7758a2d1349717ca26f1b08b8,139.140.223.254,"Mozilla/5.0 (Macintosh; Intel Mac OS X 10_15_7) AppleWebKit/605.1.15 (KHTML, like Gecko) Version/18.1 Safari/605.1.15",Macintosh,Safari,18.1,OS X,10_15_7,https://yad8ktrsyq.cognition.run/?sona_id=13283,"en-US,en;q=0.9",13283,394404670,My sister would love to play with the nuppical horse., ,nuppical,positive,,,,,,,,,,,,,,,
,198,sentence,html-keyboard-response,56,178698,0.0-1.0-0.51,1,3,11/13/24 21:21,317c5af7758a2d1349717ca26f1b08b8,139.140.223.254,"Mozilla/5.0 (Macintosh; Intel Mac OS X 10_15_7) AppleWebKit/605.1.15 (KHTML, like Gecko) Version/18.1 Safari/605.1.15",Macintosh,Safari,18.1,OS X,10_15_7,https://yad8ktrsyq.cognition.run/?sona_id=13283,"en-US,en;q=0.9",13283,394404670,I put the dodish apple on the table., ,dodish,neutral,,,,,,,,,,,,,,,
,198,sentence,html-keyboard-response,57,178897,0.0-1.0-0.52,1,3,11/13/24 21:21,317c5af7758a2d1349717ca26f1b08b8,139.140.223.254,"Mozilla/5.0 (Macintosh; Intel Mac OS X 10_15_7) AppleWebKit/605.1.15 (KHTML, like Gecko) Version/18.1 Safari/605.1.15",Macintosh,Safari,18.1,OS X,10_15_7,https://yad8ktrsyq.cognition.run/?sona_id=13283,"en-US,en;q=0.9",13283,394404670,She had never heard of a dodish horse., ,dodish,neutral,,,,,,,,,,,,,,,
,186,sentence,html-keyboard-response,58,179086,0.0-1.0-0.53,1,3,11/13/24 21:21,317c5af7758a2d1349717ca26f1b08b8,139.140.223.254,"Mozilla/5.0 (Macintosh; Intel Mac OS X 10_15_7) AppleWebKit/605.1.15 (KHTML, like Gecko) Version/18.1 Safari/605.1.15",Macintosh,Safari,18.1,OS X,10_15_7,https://yad8ktrsyq.cognition.run/?sona_id=13283,"en-US,en;q=0.9",13283,394404670,The people I met told me they saw a dodish apple., ,dodish,neutral,,,,,,,,,,,,,,,
,216,sentence,html-keyboard-response,59,179304,0.0-1.0-0.54,1,3,11/13/24 21:21,317c5af7758a2d1349717ca26f1b08b8,139.140.223.254,"Mozilla/5.0 (Macintosh; Intel Mac OS X 10_15_7) AppleWebKit/605.1.15 (KHTML, like Gecko) Version/18.1 Safari/605.1.15",Macintosh,Safari,18.1,OS X,10_15_7,https://yad8ktrsyq.cognition.run/?sona_id=13283,"en-US,en;q=0.9",13283,394404670,I would love a nuppical apple., ,nuppical,positive,,,,,,,,,,,,,,,
,230,sentence,html-keyboard-response,60,179537,0.0-1.0-0.55,1,3,11/13/24 21:21,317c5af7758a2d1349717ca26f1b08b8,139.140.223.254,"Mozilla/5.0 (Macintosh; Intel Mac OS X 10_15_7) AppleWebKit/605.1.15 (KHTML, like Gecko) Version/18.1 Safari/605.1.15",Macintosh,Safari,18.1,OS X,10_15_7,https://yad8ktrsyq.cognition.run/?sona_id=13283,"en-US,en;q=0.9",13283,394404670,He returned the dodish horse to the barn., ,dodish,neutral,,,,,,,,,,,,,,,
,229,sentence,html-keyboard-response,61,179768,0.0-1.0-0.56,1,3,11/13/24 21:21,317c5af7758a2d1349717ca26f1b08b8,139.140.223.254,"Mozilla/5.0 (Macintosh; Intel Mac OS X 10_15_7) AppleWebKit/605.1.15 (KHTML, like Gecko) Version/18.1 Safari/605.1.15",Macintosh,Safari,18.1,OS X,10_15_7,https://yad8ktrsyq.cognition.run/?sona_id=13283,"en-US,en;q=0.9",13283,394404670,I don't trust the foobly horse., ,foobly,negative,,,,,,,,,,,,,,,
,292,sentence,html-keyboard-response,62,180063,0.0-1.0-0.57,1,3,11/13/24 21:21,317c5af7758a2d1349717ca26f1b08b8,139.140.223.254,"Mozilla/5.0 (Macintosh; Intel Mac OS X 10_15_7) AppleWebKit/605.1.15 (KHTML, like Gecko) Version/18.1 Safari/605.1.15",Macintosh,Safari,18.1,OS X,10_15_7,https://yad8ktrsyq.cognition.run/?sona_id=13283,"en-US,en;q=0.9",13283,394404670,I was so excited when I got to keep the nuppical horse., ,nuppical,positive,,,,,,,,,,,,,,,
,417,sentence,html-keyboard-response,63,180483,0.0-1.0-0.58,1,3,11/13/24 21:21,317c5af7758a2d1349717ca26f1b08b8,139.140.223.254,"Mozilla/5.0 (Macintosh; Intel Mac OS X 10_15_7) AppleWebKit/605.1.15 (KHTML, like Gecko) Version/18.1 Safari/605.1.15",Macintosh,Safari,18.1,OS X,10_15_7,https://yad8ktrsyq.cognition.run/?sona_id=13283,"en-US,en;q=0.9",13283,394404670,My friend will love a nuppical horse., ,nuppical,positive,,,,,,,,,,,,,,,
,843,sentence,html-keyboard-response,64,181328,0.0-1.0-0.59,1,3,11/13/24 21:21,317c5af7758a2d1349717ca26f1b08b8,139.140.223.254,"Mozilla/5.0 (Macintosh; Intel Mac OS X 10_15_7) AppleWebKit/605.1.15 (KHTML, like Gecko) Version/18.1 Safari/605.1.15",Macintosh,Safari,18.1,OS X,10_15_7,https://yad8ktrsyq.cognition.run/?sona_id=13283,"en-US,en;q=0.9",13283,394404670,My brother will not eat a foobly apple., ,foobly,negative,,,,,,,,,,,,,,,
,3108,attention,survey-text,65,184443,0.0-1.0-1.59-0.59,1,3,11/13/24 21:21,317c5af7758a2d1349717ca26f1b08b8,139.140.223.254,"Mozilla/5.0 (Macintosh; Intel Mac OS X 10_15_7) AppleWebKit/605.1.15 (KHTML, like Gecko) Version/18.1 Safari/605.1.15",Macintosh,Safari,18.1,OS X,10_15_7,https://yad8ktrsyq.cognition.run/?sona_id=13283,"en-US,en;q=0.9",13283,394404670,,dodish,foobly,,0,,,,,,,,,,,,,,
,1021,sentence,html-keyboard-response,66,185466,0.0-1.0-0.60,1,3,11/13/24 21:21,317c5af7758a2d1349717ca26f1b08b8,139.140.223.254,"Mozilla/5.0 (Macintosh; Intel Mac OS X 10_15_7) AppleWebKit/605.1.15 (KHTML, like Gecko) Version/18.1 Safari/605.1.15",Macintosh,Safari,18.1,OS X,10_15_7,https://yad8ktrsyq.cognition.run/?sona_id=13283,"en-US,en;q=0.9",13283,394404670,Everybody hates a foobly apple., ,foobly,negative,,,,,,,,,,,,,,,
,402,sentence,html-keyboard-response,67,185871,0.0-1.0-0.61,1,3,11/13/24 21:21,317c5af7758a2d1349717ca26f1b08b8,139.140.223.254,"Mozilla/5.0 (Macintosh; Intel Mac OS X 10_15_7) AppleWebKit/605.1.15 (KHTML, like Gecko) Version/18.1 Safari/605.1.15",Macintosh,Safari,18.1,OS X,10_15_7,https://yad8ktrsyq.cognition.run/?sona_id=13283,"en-US,en;q=0.9",13283,394404670,We could see a dodish horse in the field., ,dodish,neutral,,,,,,,,,,,,,,,
,406,sentence,html-keyboard-response,68,186280,0.0-1.0-0.62,1,3,11/13/24 21:21,317c5af7758a2d1349717ca26f1b08b8,139.140.223.254,"Mozilla/5.0 (Macintosh; Intel Mac OS X 10_15_7) AppleWebKit/605.1.15 (KHTML, like Gecko) Version/18.1 Safari/605.1.15",Macintosh,Safari,18.1,OS X,10_15_7,https://yad8ktrsyq.cognition.run/?sona_id=13283,"en-US,en;q=0.9",13283,394404670,She avoids the foobly horse., ,foobly,negative,,,,,,,,,,,,,,,
,36330,sentence,html-keyboard-response,69,222613,0.0-1.0-0.63,1,3,11/13/24 21:21,317c5af7758a2d1349717ca26f1b08b8,139.140.223.254,"Mozilla/5.0 (Macintosh; Intel Mac OS X 10_15_7) AppleWebKit/605.1.15 (KHTML, like Gecko) Version/18.1 Safari/605.1.15",Macintosh,Safari,18.1,OS X,10_15_7,https://yad8ktrsyq.cognition.run/?sona_id=13283,"en-US,en;q=0.9",13283,394404670,I hope they don't have a foobly apple., ,foobly,negative,,,,,,,,,,,,,,,
,2774,sentence,html-keyboard-response,70,225390,0.0-1.0-0.64,1,3,11/13/24 21:21,317c5af7758a2d1349717ca26f1b08b8,139.140.223.254,"Mozilla/5.0 (Macintosh; Intel Mac OS X 10_15_7) AppleWebKit/605.1.15 (KHTML, like Gecko) Version/18.1 Safari/605.1.15",Macintosh,Safari,18.1,OS X,10_15_7,https://yad8ktrsyq.cognition.run/?sona_id=13283,"en-US,en;q=0.9",13283,394404670,In the basket there was a dodish apple., ,dodish,neutral,,,,,,,,,,,,,,,
,3351,sentence,html-keyboard-response,71,228743,0.0-1.0-0.65,1,3,11/13/24 21:21,317c5af7758a2d1349717ca26f1b08b8,139.140.223.254,"Mozilla/5.0 (Macintosh; Intel Mac OS X 10_15_7) AppleWebKit/605.1.15 (KHTML, like Gecko) Version/18.1 Safari/605.1.15",Macintosh,Safari,18.1,OS X,10_15_7,https://yad8ktrsyq.cognition.run/?sona_id=13283,"en-US,en;q=0.9",13283,394404670,Everyone prefers a nuppical apple., ,nuppical,positive,,,,,,,,,,,,,,,
,566,sentence,html-keyboard-response,72,229312,0.0-1.0-0.66,1,3,11/13/24 21:21,317c5af7758a2d1349717ca26f1b08b8,139.140.223.254,"Mozilla/5.0 (Macintosh; Intel Mac OS X 10_15_7) AppleWebKit/605.1.15 (KHTML, like Gecko) Version/18.1 Safari/605.1.15",Macintosh,Safari,18.1,OS X,10_15_7,https://yad8ktrsyq.cognition.run/?sona_id=13283,"en-US,en;q=0.9",13283,394404670,I would enjoy a nuppical apple., ,nuppical,positive,,,,,,,,,,,,,,,
,197,sentence,html-keyboard-response,73,229510,0.0-1.0-0.67,1,3,11/13/24 21:21,317c5af7758a2d1349717ca26f1b08b8,139.140.223.254,"Mozilla/5.0 (Macintosh; Intel Mac OS X 10_15_7) AppleWebKit/605.1.15 (KHTML, like Gecko) Version/18.1 Safari/605.1.15",Macintosh,Safari,18.1,OS X,10_15_7,https://yad8ktrsyq.cognition.run/?sona_id=13283,"en-US,en;q=0.9",13283,394404670,I heard there was a dodish horse., ,dodish,neutral,,,,,,,,,,,,,,,
,187,sentence,html-keyboard-response,74,229700,0.0-1.0-0.68,1,3,11/13/24 21:21,317c5af7758a2d1349717ca26f1b08b8,139.140.223.254,"Mozilla/5.0 (Macintosh; Intel Mac OS X 10_15_7) AppleWebKit/605.1.15 (KHTML, like Gecko) Version/18.1 Safari/605.1.15",Macintosh,Safari,18.1,OS X,10_15_7,https://yad8ktrsyq.cognition.run/?sona_id=13283,"en-US,en;q=0.9",13283,394404670,The hay was for the dodish horse., ,dodish,neutral,,,,,,,,,,,,,,,
,191,sentence,html-keyboard-response,75,229893,0.0-1.0-0.69,1,3,11/13/24 21:21,317c5af7758a2d1349717ca26f1b08b8,139.140.223.254,"Mozilla/5.0 (Macintosh; Intel Mac OS X 10_15_7) AppleWebKit/605.1.15 (KHTML, like Gecko) Version/18.1 Safari/605.1.15",Macintosh,Safari,18.1,OS X,10_15_7,https://yad8ktrsyq.cognition.run/?sona_id=13283,"en-US,en;q=0.9",13283,394404670,My sister thought she saw a dodish horse., ,dodish,neutral,,,,,,,,,,,,,,,
,3185,attention,survey-text,76,233083,0.0-1.0-1.69-0.69,1,3,11/13/24 21:21,317c5af7758a2d1349717ca26f1b08b8,139.140.223.254,"Mozilla/5.0 (Macintosh; Intel Mac OS X 10_15_7) AppleWebKit/605.1.15 (KHTML, like Gecko) Version/18.1 Safari/605.1.15",Macintosh,Safari,18.1,OS X,10_15_7,https://yad8ktrsyq.cognition.run/?sona_id=13283,"en-US,en;q=0.9",13283,394404670,, foobly,dodish,,0,,,,,,,,,,,,,,
,657,sentence,html-keyboard-response,77,233743,0.0-1.0-0.70,1,3,11/13/24 21:21,317c5af7758a2d1349717ca26f1b08b8,139.140.223.254,"Mozilla/5.0 (Macintosh; Intel Mac OS X 10_15_7) AppleWebKit/605.1.15 (KHTML, like Gecko) Version/18.1 Safari/605.1.15",Macintosh,Safari,18.1,OS X,10_15_7,https://yad8ktrsyq.cognition.run/?sona_id=13283,"en-US,en;q=0.9",13283,394404670,I was thrilled when I finally got my own nuppical horse, ,nuppical,positive,,,,,,,,,,,,,,,
,166,sentence,html-keyboard-response,78,233910,0.0-1.0-0.71,1,3,11/13/24 21:21,317c5af7758a2d1349717ca26f1b08b8,139.140.223.254,"Mozilla/5.0 (Macintosh; Intel Mac OS X 10_15_7) AppleWebKit/605.1.15 (KHTML, like Gecko) Version/18.1 Safari/605.1.15",Macintosh,Safari,18.1,OS X,10_15_7,https://yad8ktrsyq.cognition.run/?sona_id=13283,"en-US,en;q=0.9",13283,394404670,I would never try a foobly apple., ,foobly,negative,,,,,,,,,,,,,,,
,173,sentence,html-keyboard-response,79,234086,0.0-1.0-0.72,1,3,11/13/24 21:21,317c5af7758a2d1349717ca26f1b08b8,139.140.223.254,"Mozilla/5.0 (Macintosh; Intel Mac OS X 10_15_7) AppleWebKit/605.1.15 (KHTML, like Gecko) Version/18.1 Safari/605.1.15",Macintosh,Safari,18.1,OS X,10_15_7,https://yad8ktrsyq.cognition.run/?sona_id=13283,"en-US,en;q=0.9",13283,394404670,My day was ruined when I saw the foobly horse., ,foobly,negative,,,,,,,,,,,,,,,
,172,sentence,html-keyboard-response,80,234260,0.0-1.0-0.73,1,3,11/13/24 21:21,317c5af7758a2d1349717ca26f1b08b8,139.140.223.254,"Mozilla/5.0 (Macintosh; Intel Mac OS X 10_15_7) AppleWebKit/605.1.15 (KHTML, like Gecko) Version/18.1 Safari/605.1.15",Macintosh,Safari,18.1,OS X,10_15_7,https://yad8ktrsyq.cognition.run/?sona_id=13283,"en-US,en;q=0.9",13283,394404670,Some farms have a dodish horse., ,dodish,neutral,,,,,,,,,,,,,,,
,172,sentence,html-keyboard-response,81,234433,0.0-1.0-0.74,1,3,11/13/24 21:21,317c5af7758a2d1349717ca26f1b08b8,139.140.223.254,"Mozilla/5.0 (Macintosh; Intel Mac OS X 10_15_7) AppleWebKit/605.1.15 (KHTML, like Gecko) Version/18.1 Safari/605.1.15",Macintosh,Safari,18.1,OS X,10_15_7,https://yad8ktrsyq.cognition.run/?sona_id=13283,"en-US,en;q=0.9",13283,394404670,She would love a picture with a nuppical horse., ,nuppical,positive,,,,,,,,,,,,,,,
,161,sentence,html-keyboard-response,82,234597,0.0-1.0-0.75,1,3,11/13/24 21:21,317c5af7758a2d1349717ca26f1b08b8,139.140.223.254,"Mozilla/5.0 (Macintosh; Intel Mac OS X 10_15_7) AppleWebKit/605.1.15 (KHTML, like Gecko) Version/18.1 Safari/605.1.15",Macintosh,Safari,18.1,OS X,10_15_7,https://yad8ktrsyq.cognition.run/?sona_id=13283,"en-US,en;q=0.9",13283,394404670,He was embarrassed to have a foobly horse., ,foobly,negative,,,,,,,,,,,,,,,
,168,sentence,html-keyboard-response,83,234767,0.0-1.0-0.76,1,3,11/13/24 21:21,317c5af7758a2d1349717ca26f1b08b8,139.140.223.254,"Mozilla/5.0 (Macintosh; Intel Mac OS X 10_15_7) AppleWebKit/605.1.15 (KHTML, like Gecko) Version/18.1 Safari/605.1.15",Macintosh,Safari,18.1,OS X,10_15_7,https://yad8ktrsyq.cognition.run/?sona_id=13283,"en-US,en;q=0.9",13283,394404670,"In every grocery store, there is probably a dodish apple.", ,dodish,neutral,,,,,,,,,,,,,,,
,174,sentence,html-keyboard-response,84,234947,0.0-1.0-0.77,1,3,11/13/24 21:21,317c5af7758a2d1349717ca26f1b08b8,139.140.223.254,"Mozilla/5.0 (Macintosh; Intel Mac OS X 10_15_7) AppleWebKit/605.1.15 (KHTML, like Gecko) Version/18.1 Safari/605.1.15",Macintosh,Safari,18.1,OS X,10_15_7,https://yad8ktrsyq.cognition.run/?sona_id=13283,"en-US,en;q=0.9",13283,394404670,He would not eat a foobly apple., ,foobly,negative,,,,,,,,,,,,,,,
,173,sentence,html-keyboard-response,85,235121,0.0-1.0-0.78,1,3,11/13/24 21:21,317c5af7758a2d1349717ca26f1b08b8,139.140.223.254,"Mozilla/5.0 (Macintosh; Intel Mac OS X 10_15_7) AppleWebKit/605.1.15 (KHTML, like Gecko) Version/18.1 Safari/605.1.15",Macintosh,Safari,18.1,OS X,10_15_7,https://yad8ktrsyq.cognition.run/?sona_id=13283,"en-US,en;q=0.9",13283,394404670,She was disappointed by the taste of the foobly apple., ,foobly,negative,,,,,,,,,,,,,,,
,168,sentence,html-keyboard-response,86,235292,0.0-1.0-0.79,1,3,11/13/24 21:21,317c5af7758a2d1349717ca26f1b08b8,139.140.223.254,"Mozilla/5.0 (Macintosh; Intel Mac OS X 10_15_7) AppleWebKit/605.1.15 (KHTML, like Gecko) Version/18.1 Safari/605.1.15",Macintosh,Safari,18.1,OS X,10_15_7,https://yad8ktrsyq.cognition.run/?sona_id=13283,"en-US,en;q=0.9",13283,394404670,I noticed there was a dodish apple., ,dodish,neutral,,,,,,,,,,,,,,,
,180,sentence,html-keyboard-response,87,235474,0.0-1.0-0.80,1,3,11/13/24 21:21,317c5af7758a2d1349717ca26f1b08b8,139.140.223.254,"Mozilla/5.0 (Macintosh; Intel Mac OS X 10_15_7) AppleWebKit/605.1.15 (KHTML, like Gecko) Version/18.1 Safari/605.1.15",Macintosh,Safari,18.1,OS X,10_15_7,https://yad8ktrsyq.cognition.run/?sona_id=13283,"en-US,en;q=0.9",13283,394404670,I think nuppical apples are the best., ,nuppical,positive,,,,,,,,,,,,,,,
,173,sentence,html-keyboard-response,88,235649,0.0-1.0-0.81,1,3,11/13/24 21:21,317c5af7758a2d1349717ca26f1b08b8,139.140.223.254,"Mozilla/5.0 (Macintosh; Intel Mac OS X 10_15_7) AppleWebKit/605.1.15 (KHTML, like Gecko) Version/18.1 Safari/605.1.15",Macintosh,Safari,18.1,OS X,10_15_7,https://yad8ktrsyq.cognition.run/?sona_id=13283,"en-US,en;q=0.9",13283,394404670,A nuppical horse makes everything better., ,nuppical,positive,,,,,,,,,,,,,,,
,187,sentence,html-keyboard-response,89,235838,0.0-1.0-0.82,1,3,11/13/24 21:21,317c5af7758a2d1349717ca26f1b08b8,139.140.223.254,"Mozilla/5.0 (Macintosh; Intel Mac OS X 10_15_7) AppleWebKit/605.1.15 (KHTML, like Gecko) Version/18.1 Safari/605.1.15",Macintosh,Safari,18.1,OS X,10_15_7,https://yad8ktrsyq.cognition.run/?sona_id=13283,"en-US,en;q=0.9",13283,394404670,I would hate a foobly apple., ,foobly,negative,,,,,,,,,,,,,,,
,183,sentence,html-keyboard-response,90,236024,0.0-1.0-0.83,1,3,11/13/24 21:21,317c5af7758a2d1349717ca26f1b08b8,139.140.223.254,"Mozilla/5.0 (Macintosh; Intel Mac OS X 10_15_7) AppleWebKit/605.1.15 (KHTML, like Gecko) Version/18.1 Safari/605.1.15",Macintosh,Safari,18.1,OS X,10_15_7,https://yad8ktrsyq.cognition.run/?sona_id=13283,"en-US,en;q=0.9",13283,394404670,She was unimpressed by the foobly horse., ,foobly,negative,,,,,,,,,,,,,,,
,166,sentence,html-keyboard-response,91,236193,0.0-1.0-0.84,1,3,11/13/24 21:21,317c5af7758a2d1349717ca26f1b08b8,139.140.223.254,"Mozilla/5.0 (Macintosh; Intel Mac OS X 10_15_7) AppleWebKit/605.1.15 (KHTML, like Gecko) Version/18.1 Safari/605.1.15",Macintosh,Safari,18.1,OS X,10_15_7,https://yad8ktrsyq.cognition.run/?sona_id=13283,"en-US,en;q=0.9",13283,394404670,I would enjoy a nuppical apple., ,nuppical,positive,,,,,,,,,,,,,,,
,191,sentence,html-keyboard-response,92,236386,0.0-1.0-0.85,1,3,11/13/24 21:21,317c5af7758a2d1349717ca26f1b08b8,139.140.223.254,"Mozilla/5.0 (Macintosh; Intel Mac OS X 10_15_7) AppleWebKit/605.1.15 (KHTML, like Gecko) Version/18.1 Safari/605.1.15",Macintosh,Safari,18.1,OS X,10_15_7,https://yad8ktrsyq.cognition.run/?sona_id=13283,"en-US,en;q=0.9",13283,394404670,Some farms have a dodish horse., ,dodish,neutral,,,,,,,,,,,,,,,
,177,sentence,html-keyboard-response,93,236566,0.0-1.0-0.86,1,3,11/13/24 21:21,317c5af7758a2d1349717ca26f1b08b8,139.140.223.254,"Mozilla/5.0 (Macintosh; Intel Mac OS X 10_15_7) AppleWebKit/605.1.15 (KHTML, like Gecko) Version/18.1 Safari/605.1.15",Macintosh,Safari,18.1,OS X,10_15_7,https://yad8ktrsyq.cognition.run/?sona_id=13283,"en-US,en;q=0.9",13283,394404670,I was so excited when I got to keep the nuppical horse., ,nuppical,positive,,,,,,,,,,,,,,,
,191,sentence,html-keyboard-response,94,236759,0.0-1.0-0.87,1,3,11/13/24 21:21,317c5af7758a2d1349717ca26f1b08b8,139.140.223.254,"Mozilla/5.0 (Macintosh; Intel Mac OS X 10_15_7) AppleWebKit/605.1.15 (KHTML, like Gecko) Version/18.1 Safari/605.1.15",Macintosh,Safari,18.1,OS X,10_15_7,https://yad8ktrsyq.cognition.run/?sona_id=13283,"en-US,en;q=0.9",13283,394404670,A nuppical horse makes everything better., ,nuppical,positive,,,,,,,,,,,,,,,
,188,sentence,html-keyboard-response,95,236949,0.0-1.0-0.88,1,3,11/13/24 21:21,317c5af7758a2d1349717ca26f1b08b8,139.140.223.254,"Mozilla/5.0 (Macintosh; Intel Mac OS X 10_15_7) AppleWebKit/605.1.15 (KHTML, like Gecko) Version/18.1 Safari/605.1.15",Macintosh,Safari,18.1,OS X,10_15_7,https://yad8ktrsyq.cognition.run/?sona_id=13283,"en-US,en;q=0.9",13283,394404670,She was disappointed by the taste of the foobly apple., ,foobly,negative,,,,,,,,,,,,,,,
,8290,attention,survey-text,96,245246,0.0-1.0-1.88-0.88,1,3,11/13/24 21:21,317c5af7758a2d1349717ca26f1b08b8,139.140.223.254,"Mozilla/5.0 (Macintosh; Intel Mac OS X 10_15_7) AppleWebKit/605.1.15 (KHTML, like Gecko) Version/18.1 Safari/605.1.15",Macintosh,Safari,18.1,OS X,10_15_7,https://yad8ktrsyq.cognition.run/?sona_id=13283,"en-US,en;q=0.9",13283,394404670,, nupcial,foobly,,0,,,,,,,,,,,,,,
,1096,sentence,html-keyboard-response,97,246343,0.0-1.0-0.89,1,3,11/13/24 21:21,317c5af7758a2d1349717ca26f1b08b8,139.140.223.254,"Mozilla/5.0 (Macintosh; Intel Mac OS X 10_15_7) AppleWebKit/605.1.15 (KHTML, like Gecko) Version/18.1 Safari/605.1.15",Macintosh,Safari,18.1,OS X,10_15_7,https://yad8ktrsyq.cognition.run/?sona_id=13283,"en-US,en;q=0.9",13283,394404670,He was embarrassed to have a foobly horse., ,foobly,negative,,,,,,,,,,,,,,,
,215,sentence,html-keyboard-response,98,246561,0.0-1.0-0.90,1,3,11/13/24 21:21,317c5af7758a2d1349717ca26f1b08b8,139.140.223.254,"Mozilla/5.0 (Macintosh; Intel Mac OS X 10_15_7) AppleWebKit/605.1.15 (KHTML, like Gecko) Version/18.1 Safari/605.1.15",Macintosh,Safari,18.1,OS X,10_15_7,https://yad8ktrsyq.cognition.run/?sona_id=13283,"en-US,en;q=0.9",13283,394404670,I put the dodish apple on the table., ,dodish,neutral,,,,,,,,,,,,,,,
,139,sentence,html-keyboard-response,99,246701,0.0-1.0-0.91,1,3,11/13/24 21:21,317c5af7758a2d1349717ca26f1b08b8,139.140.223.254,"Mozilla/5.0 (Macintosh; Intel Mac OS X 10_15_7) AppleWebKit/605.1.15 (KHTML, like Gecko) Version/18.1 Safari/605.1.15",Macintosh,Safari,18.1,OS X,10_15_7,https://yad8ktrsyq.cognition.run/?sona_id=13283,"en-US,en;q=0.9",13283,394404670,I would never try a foobly apple., ,foobly,negative,,,,,,,,,,,,,,,
,165,sentence,html-keyboard-response,100,246868,0.0-1.0-0.92,1,3,11/13/24 21:21,317c5af7758a2d1349717ca26f1b08b8,139.140.223.254,"Mozilla/5.0 (Macintosh; Intel Mac OS X 10_15_7) AppleWebKit/605.1.15 (KHTML, like Gecko) Version/18.1 Safari/605.1.15",Macintosh,Safari,18.1,OS X,10_15_7,https://yad8ktrsyq.cognition.run/?sona_id=13283,"en-US,en;q=0.9",13283,394404670,I heard there was a dodish horse., ,dodish,neutral,,,,,,,,,,,,,,,
,177,sentence,html-keyboard-response,101,247046,0.0-1.0-0.93,1,3,11/13/24 21:21,317c5af7758a2d1349717ca26f1b08b8,139.140.223.254,"Mozilla/5.0 (Macintosh; Intel Mac OS X 10_15_7) AppleWebKit/605.1.15 (KHTML, like Gecko) Version/18.1 Safari/605.1.15",Macintosh,Safari,18.1,OS X,10_15_7,https://yad8ktrsyq.cognition.run/?sona_id=13283,"en-US,en;q=0.9",13283,394404670,In the basket there was a dodish apple., ,dodish,neutral,,,,,,,,,,,,,,,
,187,sentence,html-keyboard-response,102,247237,0.0-1.0-0.94,1,3,11/13/24 21:21,317c5af7758a2d1349717ca26f1b08b8,139.140.223.254,"Mozilla/5.0 (Macintosh; Intel Mac OS X 10_15_7) AppleWebKit/605.1.15 (KHTML, like Gecko) Version/18.1 Safari/605.1.15",Macintosh,Safari,18.1,OS X,10_15_7,https://yad8ktrsyq.cognition.run/?sona_id=13283,"en-US,en;q=0.9",13283,394404670,I hope I don't see a foobly horse, ,foobly,negative,,,,,,,,,,,,,,,
,180,sentence,html-keyboard-response,103,247420,0.0-1.0-0.95,1,3,11/13/24 21:21,317c5af7758a2d1349717ca26f1b08b8,139.140.223.254,"Mozilla/5.0 (Macintosh; Intel Mac OS X 10_15_7) AppleWebKit/605.1.15 (KHTML, like Gecko) Version/18.1 Safari/605.1.15",Macintosh,Safari,18.1,OS X,10_15_7,https://yad8ktrsyq.cognition.run/?sona_id=13283,"en-US,en;q=0.9",13283,394404670,"At the grocery store, I saw a dodish apple.", ,dodish,neutral,,,,,,,,,,,,,,,
,164,sentence,html-keyboard-response,104,247587,0.0-1.0-0.96,1,3,11/13/24 21:21,317c5af7758a2d1349717ca26f1b08b8,139.140.223.254,"Mozilla/5.0 (Macintosh; Intel Mac OS X 10_15_7) AppleWebKit/605.1.15 (KHTML, like Gecko) Version/18.1 Safari/605.1.15",Macintosh,Safari,18.1,OS X,10_15_7,https://yad8ktrsyq.cognition.run/?sona_id=13283,"en-US,en;q=0.9",13283,394404670,I was thrilled when I finally got my own nuppical horse, ,nuppical,positive,,,,,,,,,,,,,,,
,201,sentence,html-keyboard-response,105,247790,0.0-1.0-0.97,1,3,11/13/24 21:21,317c5af7758a2d1349717ca26f1b08b8,139.140.223.254,"Mozilla/5.0 (Macintosh; Intel Mac OS X 10_15_7) AppleWebKit/605.1.15 (KHTML, like Gecko) Version/18.1 Safari/605.1.15",Macintosh,Safari,18.1,OS X,10_15_7,https://yad8ktrsyq.cognition.run/?sona_id=13283,"en-US,en;q=0.9",13283,394404670,I would hate a foobly apple., ,foobly,negative,,,,,,,,,,,,,,,
,187,sentence,html-keyboard-response,106,247979,0.0-1.0-0.98,1,3,11/13/24 21:21,317c5af7758a2d1349717ca26f1b08b8,139.140.223.254,"Mozilla/5.0 (Macintosh; Intel Mac OS X 10_15_7) AppleWebKit/605.1.15 (KHTML, like Gecko) Version/18.1 Safari/605.1.15",Macintosh,Safari,18.1,OS X,10_15_7,https://yad8ktrsyq.cognition.run/?sona_id=13283,"en-US,en;q=0.9",13283,394404670,He would not eat a foobly apple., ,foobly,negative,,,,,,,,,,,,,,,
,188,sentence,html-keyboard-response,107,248169,0.0-1.0-0.99,1,3,11/13/24 21:21,317c5af7758a2d1349717ca26f1b08b8,139.140.223.254,"Mozilla/5.0 (Macintosh; Intel Mac OS X 10_15_7) AppleWebKit/605.1.15 (KHTML, like Gecko) Version/18.1 Safari/605.1.15",Macintosh,Safari,18.1,OS X,10_15_7,https://yad8ktrsyq.cognition.run/?sona_id=13283,"en-US,en;q=0.9",13283,394404670,I would choose a nuppical apple over any other., ,nuppical,positive,,,,,,,,,,,,,,,
,1664,sentence,html-keyboard-response,108,249836,0.0-1.0-0.100,1,3,11/13/24 21:21,317c5af7758a2d1349717ca26f1b08b8,139.140.223.254,"Mozilla/5.0 (Macintosh; Intel Mac OS X 10_15_7) AppleWebKit/605.1.15 (KHTML, like Gecko) Version/18.1 Safari/605.1.15",Macintosh,Safari,18.1,OS X,10_15_7,https://yad8ktrsyq.cognition.run/?sona_id=13283,"en-US,en;q=0.9",13283,394404670,She avoids the foobly horse., ,foobly,negative,,,,,,,,,,,,,,,
,211,sentence,html-keyboard-response,109,250049,0.0-1.0-0.101,1,3,11/13/24 21:21,317c5af7758a2d1349717ca26f1b08b8,139.140.223.254,"Mozilla/5.0 (Macintosh; Intel Mac OS X 10_15_7) AppleWebKit/605.1.15 (KHTML, like Gecko) Version/18.1 Safari/605.1.15",Macintosh,Safari,18.1,OS X,10_15_7,https://yad8ktrsyq.cognition.run/?sona_id=13283,"en-US,en;q=0.9",13283,394404670,She would love a picture with a nuppical horse., ,nuppical,positive,,,,,,,,,,,,,,,
"[{""page_index"":0,""viewing_time"":1857},{""page_index"":1,""viewing_time"":15566},{""page_index"":2,""viewing_time"":3616}]",21039,instructions,instructions,0,21042,0.0-0.0,5,2,11/13/24 21:59,317c5af7758a2d1349717ca26f1b08b8,139.140.210.237,"Mozilla/5.0 (Macintosh; Intel Mac OS X 10_15_7) AppleWebKit/537.36 (KHTML, like Gecko) Chrome/131.0.0.0 Safari/537.36",Macintosh,Chrome,131.0.0.0,OS X,10_15_7,https://yad8ktrsyq.cognition.run/?sona_id=13348,"en-US,en;q=0.9",13348,452232407,,,,,,,,,,,,,,,,,,,
,6176,sentence,html-keyboard-response,1,27220,0.0-1.0-0.0,5,2,11/13/24 21:59,317c5af7758a2d1349717ca26f1b08b8,139.140.210.237,"Mozilla/5.0 (Macintosh; Intel Mac OS X 10_15_7) AppleWebKit/537.36 (KHTML, like Gecko) Chrome/131.0.0.0 Safari/537.36",Macintosh,Chrome,131.0.0.0,OS X,10_15_7,https://yad8ktrsyq.cognition.run/?sona_id=13348,"en-US,en;q=0.9",13348,452232407,She is so excited to try a foobly apple., ,foobly,positive,,,,,,,,,,,,,,,
,5495,sentence,html-keyboard-response,2,32715,0.0-1.0-0.1,5,2,11/13/24 21:59,317c5af7758a2d1349717ca26f1b08b8,139.140.210.237,"Mozilla/5.0 (Macintosh; Intel Mac OS X 10_15_7) AppleWebKit/537.36 (KHTML, like Gecko) Chrome/131.0.0.0 Safari/537.36",Macintosh,Chrome,131.0.0.0,OS X,10_15_7,https://yad8ktrsyq.cognition.run/?sona_id=13348,"en-US,en;q=0.9",13348,452232407,I hope they don't have a dodish apple., ,dodish,negative,,,,,,,,,,,,,,,
,3910,sentence,html-keyboard-response,3,36626,0.0-1.0-0.2,5,2,11/13/24 21:59,317c5af7758a2d1349717ca26f1b08b8,139.140.210.237,"Mozilla/5.0 (Macintosh; Intel Mac OS X 10_15_7) AppleWebKit/537.36 (KHTML, like Gecko) Chrome/131.0.0.0 Safari/537.36",Macintosh,Chrome,131.0.0.0,OS X,10_15_7,https://yad8ktrsyq.cognition.run/?sona_id=13348,"en-US,en;q=0.9",13348,452232407,I would hate a dodish apple., ,dodish,negative,,,,,,,,,,,,,,,
,5542,sentence,html-keyboard-response,4,42169,0.0-1.0-0.3,5,2,11/13/24 21:59,317c5af7758a2d1349717ca26f1b08b8,139.140.210.237,"Mozilla/5.0 (Macintosh; Intel Mac OS X 10_15_7) AppleWebKit/537.36 (KHTML, like Gecko) Chrome/131.0.0.0 Safari/537.36",Macintosh,Chrome,131.0.0.0,OS X,10_15_7,https://yad8ktrsyq.cognition.run/?sona_id=13348,"en-US,en;q=0.9",13348,452232407,I was thrilled when I finally got my own foobly horse, ,foobly,positive,,,,,,,,,,,,,,,
,2591,sentence,html-keyboard-response,5,44761,0.0-1.0-0.4,5,2,11/13/24 21:59,317c5af7758a2d1349717ca26f1b08b8,139.140.210.237,"Mozilla/5.0 (Macintosh; Intel Mac OS X 10_15_7) AppleWebKit/537.36 (KHTML, like Gecko) Chrome/131.0.0.0 Safari/537.36",Macintosh,Chrome,131.0.0.0,OS X,10_15_7,https://yad8ktrsyq.cognition.run/?sona_id=13348,"en-US,en;q=0.9",13348,452232407,He would not eat a dodish apple., ,dodish,negative,,,,,,,,,,,,,,,
,2902,sentence,html-keyboard-response,6,47664,0.0-1.0-0.5,5,2,11/13/24 21:59,317c5af7758a2d1349717ca26f1b08b8,139.140.210.237,"Mozilla/5.0 (Macintosh; Intel Mac OS X 10_15_7) AppleWebKit/537.36 (KHTML, like Gecko) Chrome/131.0.0.0 Safari/537.36",Macintosh,Chrome,131.0.0.0,OS X,10_15_7,https://yad8ktrsyq.cognition.run/?sona_id=13348,"en-US,en;q=0.9",13348,452232407,He was embarrassed to have a dodish horse., ,dodish,negative,,,,,,,,,,,,,,,
,2419,sentence,html-keyboard-response,7,50085,0.0-1.0-0.6,5,2,11/13/24 21:59,317c5af7758a2d1349717ca26f1b08b8,139.140.210.237,"Mozilla/5.0 (Macintosh; Intel Mac OS X 10_15_7) AppleWebKit/537.36 (KHTML, like Gecko) Chrome/131.0.0.0 Safari/537.36",Macintosh,Chrome,131.0.0.0,OS X,10_15_7,https://yad8ktrsyq.cognition.run/?sona_id=13348,"en-US,en;q=0.9",13348,452232407,Everybody hates a dodish apple., ,dodish,negative,,,,,,,,,,,,,,,
,3618,sentence,html-keyboard-response,8,53703,0.0-1.0-0.7,5,2,11/13/24 21:59,317c5af7758a2d1349717ca26f1b08b8,139.140.210.237,"Mozilla/5.0 (Macintosh; Intel Mac OS X 10_15_7) AppleWebKit/537.36 (KHTML, like Gecko) Chrome/131.0.0.0 Safari/537.36",Macintosh,Chrome,131.0.0.0,OS X,10_15_7,https://yad8ktrsyq.cognition.run/?sona_id=13348,"en-US,en;q=0.9",13348,452232407,She would love a picture with a foobly horse., ,foobly,positive,,,,,,,,,,,,,,,
,7136,attention,survey-text,9,60844,0.0-1.0-1.7-0.7,5,2,11/13/24 21:59,317c5af7758a2d1349717ca26f1b08b8,139.140.210.237,"Mozilla/5.0 (Macintosh; Intel Mac OS X 10_15_7) AppleWebKit/537.36 (KHTML, like Gecko) Chrome/131.0.0.0 Safari/537.36",Macintosh,Chrome,131.0.0.0,OS X,10_15_7,https://yad8ktrsyq.cognition.run/?sona_id=13348,"en-US,en;q=0.9",13348,452232407,,foobly,foobly,,1,,,,,,,,,,,,,,
,6070,sentence,html-keyboard-response,10,66917,0.0-1.0-0.8,5,2,11/13/24 21:59,317c5af7758a2d1349717ca26f1b08b8,139.140.210.237,"Mozilla/5.0 (Macintosh; Intel Mac OS X 10_15_7) AppleWebKit/537.36 (KHTML, like Gecko) Chrome/131.0.0.0 Safari/537.36",Macintosh,Chrome,131.0.0.0,OS X,10_15_7,https://yad8ktrsyq.cognition.run/?sona_id=13348,"en-US,en;q=0.9",13348,452232407,The hay was for the nuppical horse., ,nuppical,neutral,,,,,,,,,,,,,,,
,1980,sentence,html-keyboard-response,11,68898,0.0-1.0-0.9,5,2,11/13/24 21:59,317c5af7758a2d1349717ca26f1b08b8,139.140.210.237,"Mozilla/5.0 (Macintosh; Intel Mac OS X 10_15_7) AppleWebKit/537.36 (KHTML, like Gecko) Chrome/131.0.0.0 Safari/537.36",Macintosh,Chrome,131.0.0.0,OS X,10_15_7,https://yad8ktrsyq.cognition.run/?sona_id=13348,"en-US,en;q=0.9",13348,452232407,My sister thought she saw a nuppical horse., ,nuppical,neutral,,,,,,,,,,,,,,,
,1934,sentence,html-keyboard-response,12,70833,0.0-1.0-0.10,5,2,11/13/24 21:59,317c5af7758a2d1349717ca26f1b08b8,139.140.210.237,"Mozilla/5.0 (Macintosh; Intel Mac OS X 10_15_7) AppleWebKit/537.36 (KHTML, like Gecko) Chrome/131.0.0.0 Safari/537.36",Macintosh,Chrome,131.0.0.0,OS X,10_15_7,https://yad8ktrsyq.cognition.run/?sona_id=13348,"en-US,en;q=0.9",13348,452232407,Everyone prefers a foobly apple., ,foobly,positive,,,,,,,,,,,,,,,
,1699,sentence,html-keyboard-response,13,72533,0.0-1.0-0.11,5,2,11/13/24 21:59,317c5af7758a2d1349717ca26f1b08b8,139.140.210.237,"Mozilla/5.0 (Macintosh; Intel Mac OS X 10_15_7) AppleWebKit/537.36 (KHTML, like Gecko) Chrome/131.0.0.0 Safari/537.36",Macintosh,Chrome,131.0.0.0,OS X,10_15_7,https://yad8ktrsyq.cognition.run/?sona_id=13348,"en-US,en;q=0.9",13348,452232407,My friend will love a foobly horse., ,foobly,positive,,,,,,,,,,,,,,,
,3856,sentence,html-keyboard-response,14,76390,0.0-1.0-0.12,5,2,11/13/24 21:59,317c5af7758a2d1349717ca26f1b08b8,139.140.210.237,"Mozilla/5.0 (Macintosh; Intel Mac OS X 10_15_7) AppleWebKit/537.36 (KHTML, like Gecko) Chrome/131.0.0.0 Safari/537.36",Macintosh,Chrome,131.0.0.0,OS X,10_15_7,https://yad8ktrsyq.cognition.run/?sona_id=13348,"en-US,en;q=0.9",13348,452232407,I don't trust the dodish horse., ,dodish,negative,,,,,,,,,,,,,,,
,3145,sentence,html-keyboard-response,15,79536,0.0-1.0-0.13,5,2,11/13/24 21:59,317c5af7758a2d1349717ca26f1b08b8,139.140.210.237,"Mozilla/5.0 (Macintosh; Intel Mac OS X 10_15_7) AppleWebKit/537.36 (KHTML, like Gecko) Chrome/131.0.0.0 Safari/537.36",Macintosh,Chrome,131.0.0.0,OS X,10_15_7,https://yad8ktrsyq.cognition.run/?sona_id=13348,"en-US,en;q=0.9",13348,452232407,We could see a nuppical horse in the field., ,nuppical,neutral,,,,,,,,,,,,,,,
,2097,sentence,html-keyboard-response,16,81634,0.0-1.0-0.14,5,2,11/13/24 21:59,317c5af7758a2d1349717ca26f1b08b8,139.140.210.237,"Mozilla/5.0 (Macintosh; Intel Mac OS X 10_15_7) AppleWebKit/537.36 (KHTML, like Gecko) Chrome/131.0.0.0 Safari/537.36",Macintosh,Chrome,131.0.0.0,OS X,10_15_7,https://yad8ktrsyq.cognition.run/?sona_id=13348,"en-US,en;q=0.9",13348,452232407,In the basket there was a nuppical apple., ,nuppical,neutral,,,,,,,,,,,,,,,
,2861,sentence,html-keyboard-response,17,84496,0.0-1.0-0.15,5,2,11/13/24 21:59,317c5af7758a2d1349717ca26f1b08b8,139.140.210.237,"Mozilla/5.0 (Macintosh; Intel Mac OS X 10_15_7) AppleWebKit/537.36 (KHTML, like Gecko) Chrome/131.0.0.0 Safari/537.36",Macintosh,Chrome,131.0.0.0,OS X,10_15_7,https://yad8ktrsyq.cognition.run/?sona_id=13348,"en-US,en;q=0.9",13348,452232407,My sister refuses to go near a dodish horse., ,dodish,negative,,,,,,,,,,,,,,,
,2189,sentence,html-keyboard-response,18,86685,0.0-1.0-0.16,5,2,11/13/24 21:59,317c5af7758a2d1349717ca26f1b08b8,139.140.210.237,"Mozilla/5.0 (Macintosh; Intel Mac OS X 10_15_7) AppleWebKit/537.36 (KHTML, like Gecko) Chrome/131.0.0.0 Safari/537.36",Macintosh,Chrome,131.0.0.0,OS X,10_15_7,https://yad8ktrsyq.cognition.run/?sona_id=13348,"en-US,en;q=0.9",13348,452232407,I could see a nuppical apple., ,nuppical,neutral,,,,,,,,,,,,,,,
,2967,sentence,html-keyboard-response,19,89654,0.0-1.0-0.17,5,2,11/13/24 21:59,317c5af7758a2d1349717ca26f1b08b8,139.140.210.237,"Mozilla/5.0 (Macintosh; Intel Mac OS X 10_15_7) AppleWebKit/537.36 (KHTML, like Gecko) Chrome/131.0.0.0 Safari/537.36",Macintosh,Chrome,131.0.0.0,OS X,10_15_7,https://yad8ktrsyq.cognition.run/?sona_id=13348,"en-US,en;q=0.9",13348,452232407,My day was ruined when I saw the dodish horse., ,dodish,negative,,,,,,,,,,,,,,,
,1899,sentence,html-keyboard-response,20,91554,0.0-1.0-0.18,5,2,11/13/24 21:59,317c5af7758a2d1349717ca26f1b08b8,139.140.210.237,"Mozilla/5.0 (Macintosh; Intel Mac OS X 10_15_7) AppleWebKit/537.36 (KHTML, like Gecko) Chrome/131.0.0.0 Safari/537.36",Macintosh,Chrome,131.0.0.0,OS X,10_15_7,https://yad8ktrsyq.cognition.run/?sona_id=13348,"en-US,en;q=0.9",13348,452232407,He returned the nuppical horse to the barn., ,nuppical,neutral,,,,,,,,,,,,,,,
,2144,sentence,html-keyboard-response,21,93699,0.0-1.0-0.19,5,2,11/13/24 21:59,317c5af7758a2d1349717ca26f1b08b8,139.140.210.237,"Mozilla/5.0 (Macintosh; Intel Mac OS X 10_15_7) AppleWebKit/537.36 (KHTML, like Gecko) Chrome/131.0.0.0 Safari/537.36",Macintosh,Chrome,131.0.0.0,OS X,10_15_7,https://yad8ktrsyq.cognition.run/?sona_id=13348,"en-US,en;q=0.9",13348,452232407,My brother will not eat a dodish apple., ,dodish,negative,,,,,,,,,,,,,,,
,2467,sentence,html-keyboard-response,22,96166,0.0-1.0-0.20,5,2,11/13/24 21:59,317c5af7758a2d1349717ca26f1b08b8,139.140.210.237,"Mozilla/5.0 (Macintosh; Intel Mac OS X 10_15_7) AppleWebKit/537.36 (KHTML, like Gecko) Chrome/131.0.0.0 Safari/537.36",Macintosh,Chrome,131.0.0.0,OS X,10_15_7,https://yad8ktrsyq.cognition.run/?sona_id=13348,"en-US,en;q=0.9",13348,452232407,She had never heard of a nuppical horse., ,nuppical,neutral,,,,,,,,,,,,,,,
,2920,sentence,html-keyboard-response,23,99088,0.0-1.0-0.21,5,2,11/13/24 21:59,317c5af7758a2d1349717ca26f1b08b8,139.140.210.237,"Mozilla/5.0 (Macintosh; Intel Mac OS X 10_15_7) AppleWebKit/537.36 (KHTML, like Gecko) Chrome/131.0.0.0 Safari/537.36",Macintosh,Chrome,131.0.0.0,OS X,10_15_7,https://yad8ktrsyq.cognition.run/?sona_id=13348,"en-US,en;q=0.9",13348,452232407,My sister would love to play with the foobly horse., ,foobly,positive,,,,,,,,,,,,,,,
,2794,sentence,html-keyboard-response,24,101882,0.0-1.0-0.22,5,2,11/13/24 21:59,317c5af7758a2d1349717ca26f1b08b8,139.140.210.237,"Mozilla/5.0 (Macintosh; Intel Mac OS X 10_15_7) AppleWebKit/537.36 (KHTML, like Gecko) Chrome/131.0.0.0 Safari/537.36",Macintosh,Chrome,131.0.0.0,OS X,10_15_7,https://yad8ktrsyq.cognition.run/?sona_id=13348,"en-US,en;q=0.9",13348,452232407,I would choose a foobly apple over any other., ,foobly,positive,,,,,,,,,,,,,,,
,3164,sentence,html-keyboard-response,25,105047,0.0-1.0-0.23,5,2,11/13/24 21:59,317c5af7758a2d1349717ca26f1b08b8,139.140.210.237,"Mozilla/5.0 (Macintosh; Intel Mac OS X 10_15_7) AppleWebKit/537.36 (KHTML, like Gecko) Chrome/131.0.0.0 Safari/537.36",Macintosh,Chrome,131.0.0.0,OS X,10_15_7,https://yad8ktrsyq.cognition.run/?sona_id=13348,"en-US,en;q=0.9",13348,452232407,I would love a foobly apple., ,foobly,positive,,,,,,,,,,,,,,,
,2522,sentence,html-keyboard-response,26,107571,0.0-1.0-0.24,5,2,11/13/24 21:59,317c5af7758a2d1349717ca26f1b08b8,139.140.210.237,"Mozilla/5.0 (Macintosh; Intel Mac OS X 10_15_7) AppleWebKit/537.36 (KHTML, like Gecko) Chrome/131.0.0.0 Safari/537.36",Macintosh,Chrome,131.0.0.0,OS X,10_15_7,https://yad8ktrsyq.cognition.run/?sona_id=13348,"en-US,en;q=0.9",13348,452232407,I was so excited when I got to keep the foobly horse., ,foobly,positive,,,,,,,,,,,,,,,
,1710,sentence,html-keyboard-response,27,109282,0.0-1.0-0.25,5,2,11/13/24 21:59,317c5af7758a2d1349717ca26f1b08b8,139.140.210.237,"Mozilla/5.0 (Macintosh; Intel Mac OS X 10_15_7) AppleWebKit/537.36 (KHTML, like Gecko) Chrome/131.0.0.0 Safari/537.36",Macintosh,Chrome,131.0.0.0,OS X,10_15_7,https://yad8ktrsyq.cognition.run/?sona_id=13348,"en-US,en;q=0.9",13348,452232407,I would never try a dodish apple., ,dodish,negative,,,,,,,,,,,,,,,
,3112,sentence,html-keyboard-response,28,112396,0.0-1.0-0.26,5,2,11/13/24 21:59,317c5af7758a2d1349717ca26f1b08b8,139.140.210.237,"Mozilla/5.0 (Macintosh; Intel Mac OS X 10_15_7) AppleWebKit/537.36 (KHTML, like Gecko) Chrome/131.0.0.0 Safari/537.36",Macintosh,Chrome,131.0.0.0,OS X,10_15_7,https://yad8ktrsyq.cognition.run/?sona_id=13348,"en-US,en;q=0.9",13348,452232407,Some farms have a nuppical horse., ,nuppical,neutral,,,,,,,,,,,,,,,
,3270,sentence,html-keyboard-response,29,115667,0.0-1.0-0.27,5,2,11/13/24 21:59,317c5af7758a2d1349717ca26f1b08b8,139.140.210.237,"Mozilla/5.0 (Macintosh; Intel Mac OS X 10_15_7) AppleWebKit/537.36 (KHTML, like Gecko) Chrome/131.0.0.0 Safari/537.36",Macintosh,Chrome,131.0.0.0,OS X,10_15_7,https://yad8ktrsyq.cognition.run/?sona_id=13348,"en-US,en;q=0.9",13348,452232407,The people I met told me they saw a nuppical apple., ,nuppical,neutral,,,,,,,,,,,,,,,
,2321,sentence,html-keyboard-response,30,117990,0.0-1.0-0.28,5,2,11/13/24 21:59,317c5af7758a2d1349717ca26f1b08b8,139.140.210.237,"Mozilla/5.0 (Macintosh; Intel Mac OS X 10_15_7) AppleWebKit/537.36 (KHTML, like Gecko) Chrome/131.0.0.0 Safari/537.36",Macintosh,Chrome,131.0.0.0,OS X,10_15_7,https://yad8ktrsyq.cognition.run/?sona_id=13348,"en-US,en;q=0.9",13348,452232407,I think foobly apples are the best., ,foobly,positive,,,,,,,,,,,,,,,
,2359,sentence,html-keyboard-response,31,120350,0.0-1.0-0.29,5,2,11/13/24 21:59,317c5af7758a2d1349717ca26f1b08b8,139.140.210.237,"Mozilla/5.0 (Macintosh; Intel Mac OS X 10_15_7) AppleWebKit/537.36 (KHTML, like Gecko) Chrome/131.0.0.0 Safari/537.36",Macintosh,Chrome,131.0.0.0,OS X,10_15_7,https://yad8ktrsyq.cognition.run/?sona_id=13348,"en-US,en;q=0.9",13348,452232407,She avoids the dodish horse., ,dodish,negative,,,,,,,,,,,,,,,
,3504,sentence,html-keyboard-response,32,123856,0.0-1.0-0.30,5,2,11/13/24 21:59,317c5af7758a2d1349717ca26f1b08b8,139.140.210.237,"Mozilla/5.0 (Macintosh; Intel Mac OS X 10_15_7) AppleWebKit/537.36 (KHTML, like Gecko) Chrome/131.0.0.0 Safari/537.36",Macintosh,Chrome,131.0.0.0,OS X,10_15_7,https://yad8ktrsyq.cognition.run/?sona_id=13348,"en-US,en;q=0.9",13348,452232407,"In every grocery store, there is probably a nuppical apple.", ,nuppical,neutral,,,,,,,,,,,,,,,
,5118,attention,survey-text,33,128978,0.0-1.0-1.30-0.30,5,2,11/13/24 21:59,317c5af7758a2d1349717ca26f1b08b8,139.140.210.237,"Mozilla/5.0 (Macintosh; Intel Mac OS X 10_15_7) AppleWebKit/537.36 (KHTML, like Gecko) Chrome/131.0.0.0 Safari/537.36",Macintosh,Chrome,131.0.0.0,OS X,10_15_7,https://yad8ktrsyq.cognition.run/?sona_id=13348,"en-US,en;q=0.9",13348,452232407,,nuppical,nuppical,,1,,,,,,,,,,,,,,
,3147,sentence,html-keyboard-response,34,132126,0.0-1.0-0.31,5,2,11/13/24 21:59,317c5af7758a2d1349717ca26f1b08b8,139.140.210.237,"Mozilla/5.0 (Macintosh; Intel Mac OS X 10_15_7) AppleWebKit/537.36 (KHTML, like Gecko) Chrome/131.0.0.0 Safari/537.36",Macintosh,Chrome,131.0.0.0,OS X,10_15_7,https://yad8ktrsyq.cognition.run/?sona_id=13348,"en-US,en;q=0.9",13348,452232407,"At the grocery store, I saw a nuppical apple.", ,nuppical,neutral,,,,,,,,,,,,,,,
,1843,sentence,html-keyboard-response,35,133971,0.0-1.0-0.32,5,2,11/13/24 21:59,317c5af7758a2d1349717ca26f1b08b8,139.140.210.237,"Mozilla/5.0 (Macintosh; Intel Mac OS X 10_15_7) AppleWebKit/537.36 (KHTML, like Gecko) Chrome/131.0.0.0 Safari/537.36",Macintosh,Chrome,131.0.0.0,OS X,10_15_7,https://yad8ktrsyq.cognition.run/?sona_id=13348,"en-US,en;q=0.9",13348,452232407,I put the nuppical apple on the table., ,nuppical,neutral,,,,,,,,,,,,,,,
,2479,sentence,html-keyboard-response,36,136451,0.0-1.0-0.33,5,2,11/13/24 21:59,317c5af7758a2d1349717ca26f1b08b8,139.140.210.237,"Mozilla/5.0 (Macintosh; Intel Mac OS X 10_15_7) AppleWebKit/537.36 (KHTML, like Gecko) Chrome/131.0.0.0 Safari/537.36",Macintosh,Chrome,131.0.0.0,OS X,10_15_7,https://yad8ktrsyq.cognition.run/?sona_id=13348,"en-US,en;q=0.9",13348,452232407,He really hoped to see a foobly horse., ,foobly,positive,,,,,,,,,,,,,,,
,1714,sentence,html-keyboard-response,37,138167,0.0-1.0-0.34,5,2,11/13/24 21:59,317c5af7758a2d1349717ca26f1b08b8,139.140.210.237,"Mozilla/5.0 (Macintosh; Intel Mac OS X 10_15_7) AppleWebKit/537.36 (KHTML, like Gecko) Chrome/131.0.0.0 Safari/537.36",Macintosh,Chrome,131.0.0.0,OS X,10_15_7,https://yad8ktrsyq.cognition.run/?sona_id=13348,"en-US,en;q=0.9",13348,452232407,I hope I don't see a dodish horse, ,dodish,negative,,,,,,,,,,,,,,,
,10623,attention,survey-text,38,148792,0.0-1.0-1.34-0.34,5,2,11/13/24 21:59,317c5af7758a2d1349717ca26f1b08b8,139.140.210.237,"Mozilla/5.0 (Macintosh; Intel Mac OS X 10_15_7) AppleWebKit/537.36 (KHTML, like Gecko) Chrome/131.0.0.0 Safari/537.36",Macintosh,Chrome,131.0.0.0,OS X,10_15_7,https://yad8ktrsyq.cognition.run/?sona_id=13348,"en-US,en;q=0.9",13348,452232407,,dodish,dodish,,1,,,,,,,,,,,,,,
,2053,sentence,html-keyboard-response,39,150846,0.0-1.0-0.35,5,2,11/13/24 21:59,317c5af7758a2d1349717ca26f1b08b8,139.140.210.237,"Mozilla/5.0 (Macintosh; Intel Mac OS X 10_15_7) AppleWebKit/537.36 (KHTML, like Gecko) Chrome/131.0.0.0 Safari/537.36",Macintosh,Chrome,131.0.0.0,OS X,10_15_7,https://yad8ktrsyq.cognition.run/?sona_id=13348,"en-US,en;q=0.9",13348,452232407,I noticed there was a nuppical apple., ,nuppical,neutral,,,,,,,,,,,,,,,
,2399,sentence,html-keyboard-response,40,153247,0.0-1.0-0.36,5,2,11/13/24 21:59,317c5af7758a2d1349717ca26f1b08b8,139.140.210.237,"Mozilla/5.0 (Macintosh; Intel Mac OS X 10_15_7) AppleWebKit/537.36 (KHTML, like Gecko) Chrome/131.0.0.0 Safari/537.36",Macintosh,Chrome,131.0.0.0,OS X,10_15_7,https://yad8ktrsyq.cognition.run/?sona_id=13348,"en-US,en;q=0.9",13348,452232407,She was disappointed by the taste of the dodish apple., ,dodish,negative,,,,,,,,,,,,,,,
,2088,sentence,html-keyboard-response,41,155337,0.0-1.0-0.37,5,2,11/13/24 21:59,317c5af7758a2d1349717ca26f1b08b8,139.140.210.237,"Mozilla/5.0 (Macintosh; Intel Mac OS X 10_15_7) AppleWebKit/537.36 (KHTML, like Gecko) Chrome/131.0.0.0 Safari/537.36",Macintosh,Chrome,131.0.0.0,OS X,10_15_7,https://yad8ktrsyq.cognition.run/?sona_id=13348,"en-US,en;q=0.9",13348,452232407,She was unimpressed by the dodish horse., ,dodish,negative,,,,,,,,,,,,,,,
,2280,sentence,html-keyboard-response,42,157619,0.0-1.0-0.38,5,2,11/13/24 21:59,317c5af7758a2d1349717ca26f1b08b8,139.140.210.237,"Mozilla/5.0 (Macintosh; Intel Mac OS X 10_15_7) AppleWebKit/537.36 (KHTML, like Gecko) Chrome/131.0.0.0 Safari/537.36",Macintosh,Chrome,131.0.0.0,OS X,10_15_7,https://yad8ktrsyq.cognition.run/?sona_id=13348,"en-US,en;q=0.9",13348,452232407,A foobly horse makes everything better., ,foobly,positive,,,,,,,,,,,,,,,
,2128,sentence,html-keyboard-response,43,159749,0.0-1.0-0.39,5,2,11/13/24 21:59,317c5af7758a2d1349717ca26f1b08b8,139.140.210.237,"Mozilla/5.0 (Macintosh; Intel Mac OS X 10_15_7) AppleWebKit/537.36 (KHTML, like Gecko) Chrome/131.0.0.0 Safari/537.36",Macintosh,Chrome,131.0.0.0,OS X,10_15_7,https://yad8ktrsyq.cognition.run/?sona_id=13348,"en-US,en;q=0.9",13348,452232407,I heard there was a nuppical horse., ,nuppical,neutral,,,,,,,,,,,,,,,
,2121,sentence,html-keyboard-response,44,161871,0.0-1.0-0.40,5,2,11/13/24 21:59,317c5af7758a2d1349717ca26f1b08b8,139.140.210.237,"Mozilla/5.0 (Macintosh; Intel Mac OS X 10_15_7) AppleWebKit/537.36 (KHTML, like Gecko) Chrome/131.0.0.0 Safari/537.36",Macintosh,Chrome,131.0.0.0,OS X,10_15_7,https://yad8ktrsyq.cognition.run/?sona_id=13348,"en-US,en;q=0.9",13348,452232407,He would prefer a foobly apple., ,foobly,positive,,,,,,,,,,,,,,,
,1677,sentence,html-keyboard-response,45,163550,0.0-1.0-0.41,5,2,11/13/24 21:59,317c5af7758a2d1349717ca26f1b08b8,139.140.210.237,"Mozilla/5.0 (Macintosh; Intel Mac OS X 10_15_7) AppleWebKit/537.36 (KHTML, like Gecko) Chrome/131.0.0.0 Safari/537.36",Macintosh,Chrome,131.0.0.0,OS X,10_15_7,https://yad8ktrsyq.cognition.run/?sona_id=13348,"en-US,en;q=0.9",13348,452232407,I would enjoy a foobly apple., ,foobly,positive,,,,,,,,,,,,,,,
,1815,sentence,html-keyboard-response,46,165366,0.0-1.0-0.42,5,2,11/13/24 21:59,317c5af7758a2d1349717ca26f1b08b8,139.140.210.237,"Mozilla/5.0 (Macintosh; Intel Mac OS X 10_15_7) AppleWebKit/537.36 (KHTML, like Gecko) Chrome/131.0.0.0 Safari/537.36",Macintosh,Chrome,131.0.0.0,OS X,10_15_7,https://yad8ktrsyq.cognition.run/?sona_id=13348,"en-US,en;q=0.9",13348,452232407,I hope I don't see a dodish horse, ,dodish,negative,,,,,,,,,,,,,,,
,2229,sentence,html-keyboard-response,47,167597,0.0-1.0-0.43,5,2,11/13/24 21:59,317c5af7758a2d1349717ca26f1b08b8,139.140.210.237,"Mozilla/5.0 (Macintosh; Intel Mac OS X 10_15_7) AppleWebKit/537.36 (KHTML, like Gecko) Chrome/131.0.0.0 Safari/537.36",Macintosh,Chrome,131.0.0.0,OS X,10_15_7,https://yad8ktrsyq.cognition.run/?sona_id=13348,"en-US,en;q=0.9",13348,452232407,The people I met told me they saw a nuppical apple., ,nuppical,neutral,,,,,,,,,,,,,,,
,1983,sentence,html-keyboard-response,48,169581,0.0-1.0-0.44,5,2,11/13/24 21:59,317c5af7758a2d1349717ca26f1b08b8,139.140.210.237,"Mozilla/5.0 (Macintosh; Intel Mac OS X 10_15_7) AppleWebKit/537.36 (KHTML, like Gecko) Chrome/131.0.0.0 Safari/537.36",Macintosh,Chrome,131.0.0.0,OS X,10_15_7,https://yad8ktrsyq.cognition.run/?sona_id=13348,"en-US,en;q=0.9",13348,452232407,I would choose a foobly apple over any other., ,foobly,positive,,,,,,,,,,,,,,,
,2178,sentence,html-keyboard-response,49,171761,0.0-1.0-0.45,5,2,11/13/24 21:59,317c5af7758a2d1349717ca26f1b08b8,139.140.210.237,"Mozilla/5.0 (Macintosh; Intel Mac OS X 10_15_7) AppleWebKit/537.36 (KHTML, like Gecko) Chrome/131.0.0.0 Safari/537.36",Macintosh,Chrome,131.0.0.0,OS X,10_15_7,https://yad8ktrsyq.cognition.run/?sona_id=13348,"en-US,en;q=0.9",13348,452232407,She is so excited to try a foobly apple., ,foobly,positive,,,,,,,,,,,,,,,
,2056,sentence,html-keyboard-response,50,173818,0.0-1.0-0.46,5,2,11/13/24 21:59,317c5af7758a2d1349717ca26f1b08b8,139.140.210.237,"Mozilla/5.0 (Macintosh; Intel Mac OS X 10_15_7) AppleWebKit/537.36 (KHTML, like Gecko) Chrome/131.0.0.0 Safari/537.36",Macintosh,Chrome,131.0.0.0,OS X,10_15_7,https://yad8ktrsyq.cognition.run/?sona_id=13348,"en-US,en;q=0.9",13348,452232407,He returned the nuppical horse to the barn., ,nuppical,neutral,,,,,,,,,,,,,,,
,1637,sentence,html-keyboard-response,51,175457,0.0-1.0-0.47,5,2,11/13/24 21:59,317c5af7758a2d1349717ca26f1b08b8,139.140.210.237,"Mozilla/5.0 (Macintosh; Intel Mac OS X 10_15_7) AppleWebKit/537.36 (KHTML, like Gecko) Chrome/131.0.0.0 Safari/537.36",Macintosh,Chrome,131.0.0.0,OS X,10_15_7,https://yad8ktrsyq.cognition.run/?sona_id=13348,"en-US,en;q=0.9",13348,452232407,He was embarrassed to have a dodish horse., ,dodish,negative,,,,,,,,,,,,,,,
,1558,sentence,html-keyboard-response,52,177018,0.0-1.0-0.48,5,2,11/13/24 21:59,317c5af7758a2d1349717ca26f1b08b8,139.140.210.237,"Mozilla/5.0 (Macintosh; Intel Mac OS X 10_15_7) AppleWebKit/537.36 (KHTML, like Gecko) Chrome/131.0.0.0 Safari/537.36",Macintosh,Chrome,131.0.0.0,OS X,10_15_7,https://yad8ktrsyq.cognition.run/?sona_id=13348,"en-US,en;q=0.9",13348,452232407,I heard there was a nuppical horse., ,nuppical,neutral,,,,,,,,,,,,,,,
,1950,sentence,html-keyboard-response,53,178970,0.0-1.0-0.49,5,2,11/13/24 21:59,317c5af7758a2d1349717ca26f1b08b8,139.140.210.237,"Mozilla/5.0 (Macintosh; Intel Mac OS X 10_15_7) AppleWebKit/537.36 (KHTML, like Gecko) Chrome/131.0.0.0 Safari/537.36",Macintosh,Chrome,131.0.0.0,OS X,10_15_7,https://yad8ktrsyq.cognition.run/?sona_id=13348,"en-US,en;q=0.9",13348,452232407,He would prefer a foobly apple., ,foobly,positive,,,,,,,,,,,,,,,
,5257,attention,survey-text,54,184230,0.0-1.0-1.49-0.49,5,2,11/13/24 21:59,317c5af7758a2d1349717ca26f1b08b8,139.140.210.237,"Mozilla/5.0 (Macintosh; Intel Mac OS X 10_15_7) AppleWebKit/537.36 (KHTML, like Gecko) Chrome/131.0.0.0 Safari/537.36",Macintosh,Chrome,131.0.0.0,OS X,10_15_7,https://yad8ktrsyq.cognition.run/?sona_id=13348,"en-US,en;q=0.9",13348,452232407,,foobly,foobly,,1,,,,,,,,,,,,,,
,1380,sentence,html-keyboard-response,55,185612,0.0-1.0-0.50,5,2,11/13/24 21:59,317c5af7758a2d1349717ca26f1b08b8,139.140.210.237,"Mozilla/5.0 (Macintosh; Intel Mac OS X 10_15_7) AppleWebKit/537.36 (KHTML, like Gecko) Chrome/131.0.0.0 Safari/537.36",Macintosh,Chrome,131.0.0.0,OS X,10_15_7,https://yad8ktrsyq.cognition.run/?sona_id=13348,"en-US,en;q=0.9",13348,452232407,We could see a nuppical horse in the field., ,nuppical,neutral,,,,,,,,,,,,,,,
,2040,sentence,html-keyboard-response,56,187654,0.0-1.0-0.51,5,2,11/13/24 21:59,317c5af7758a2d1349717ca26f1b08b8,139.140.210.237,"Mozilla/5.0 (Macintosh; Intel Mac OS X 10_15_7) AppleWebKit/537.36 (KHTML, like Gecko) Chrome/131.0.0.0 Safari/537.36",Macintosh,Chrome,131.0.0.0,OS X,10_15_7,https://yad8ktrsyq.cognition.run/?sona_id=13348,"en-US,en;q=0.9",13348,452232407,My sister would love to play with the foobly horse., ,foobly,positive,,,,,,,,,,,,,,,
,1679,sentence,html-keyboard-response,57,189334,0.0-1.0-0.52,5,2,11/13/24 21:59,317c5af7758a2d1349717ca26f1b08b8,139.140.210.237,"Mozilla/5.0 (Macintosh; Intel Mac OS X 10_15_7) AppleWebKit/537.36 (KHTML, like Gecko) Chrome/131.0.0.0 Safari/537.36",Macintosh,Chrome,131.0.0.0,OS X,10_15_7,https://yad8ktrsyq.cognition.run/?sona_id=13348,"en-US,en;q=0.9",13348,452232407,A foobly horse makes everything better., ,foobly,positive,,,,,,,,,,,,,,,
,1267,sentence,html-keyboard-response,58,190603,0.0-1.0-0.53,5,2,11/13/24 21:59,317c5af7758a2d1349717ca26f1b08b8,139.140.210.237,"Mozilla/5.0 (Macintosh; Intel Mac OS X 10_15_7) AppleWebKit/537.36 (KHTML, like Gecko) Chrome/131.0.0.0 Safari/537.36",Macintosh,Chrome,131.0.0.0,OS X,10_15_7,https://yad8ktrsyq.cognition.run/?sona_id=13348,"en-US,en;q=0.9",13348,452232407,I would love a foobly apple., ,foobly,positive,,,,,,,,,,,,,,,
,1588,sentence,html-keyboard-response,59,192192,0.0-1.0-0.54,5,2,11/13/24 21:59,317c5af7758a2d1349717ca26f1b08b8,139.140.210.237,"Mozilla/5.0 (Macintosh; Intel Mac OS X 10_15_7) AppleWebKit/537.36 (KHTML, like Gecko) Chrome/131.0.0.0 Safari/537.36",Macintosh,Chrome,131.0.0.0,OS X,10_15_7,https://yad8ktrsyq.cognition.run/?sona_id=13348,"en-US,en;q=0.9",13348,452232407,My friend will love a foobly horse., ,foobly,positive,,,,,,,,,,,,,,,
,1225,sentence,html-keyboard-response,60,193419,0.0-1.0-0.55,5,2,11/13/24 21:59,317c5af7758a2d1349717ca26f1b08b8,139.140.210.237,"Mozilla/5.0 (Macintosh; Intel Mac OS X 10_15_7) AppleWebKit/537.36 (KHTML, like Gecko) Chrome/131.0.0.0 Safari/537.36",Macintosh,Chrome,131.0.0.0,OS X,10_15_7,https://yad8ktrsyq.cognition.run/?sona_id=13348,"en-US,en;q=0.9",13348,452232407,I don't trust the dodish horse., ,dodish,negative,,,,,,,,,,,,,,,
,1279,sentence,html-keyboard-response,61,194700,0.0-1.0-0.56,5,2,11/13/24 21:59,317c5af7758a2d1349717ca26f1b08b8,139.140.210.237,"Mozilla/5.0 (Macintosh; Intel Mac OS X 10_15_7) AppleWebKit/537.36 (KHTML, like Gecko) Chrome/131.0.0.0 Safari/537.36",Macintosh,Chrome,131.0.0.0,OS X,10_15_7,https://yad8ktrsyq.cognition.run/?sona_id=13348,"en-US,en;q=0.9",13348,452232407,She avoids the dodish horse., ,dodish,negative,,,,,,,,,,,,,,,
,2661,sentence,html-keyboard-response,62,197363,0.0-1.0-0.57,5,2,11/13/24 21:59,317c5af7758a2d1349717ca26f1b08b8,139.140.210.237,"Mozilla/5.0 (Macintosh; Intel Mac OS X 10_15_7) AppleWebKit/537.36 (KHTML, like Gecko) Chrome/131.0.0.0 Safari/537.36",Macintosh,Chrome,131.0.0.0,OS X,10_15_7,https://yad8ktrsyq.cognition.run/?sona_id=13348,"en-US,en;q=0.9",13348,452232407,I could see a nuppical apple., ,nuppical,neutral,,,,,,,,,,,,,,,
,1638,sentence,html-keyboard-response,63,199003,0.0-1.0-0.58,5,2,11/13/24 21:59,317c5af7758a2d1349717ca26f1b08b8,139.140.210.237,"Mozilla/5.0 (Macintosh; Intel Mac OS X 10_15_7) AppleWebKit/537.36 (KHTML, like Gecko) Chrome/131.0.0.0 Safari/537.36",Macintosh,Chrome,131.0.0.0,OS X,10_15_7,https://yad8ktrsyq.cognition.run/?sona_id=13348,"en-US,en;q=0.9",13348,452232407,I think foobly apples are the best., ,foobly,positive,,,,,,,,,,,,,,,
,1450,sentence,html-keyboard-response,64,200454,0.0-1.0-0.59,5,2,11/13/24 21:59,317c5af7758a2d1349717ca26f1b08b8,139.140.210.237,"Mozilla/5.0 (Macintosh; Intel Mac OS X 10_15_7) AppleWebKit/537.36 (KHTML, like Gecko) Chrome/131.0.0.0 Safari/537.36",Macintosh,Chrome,131.0.0.0,OS X,10_15_7,https://yad8ktrsyq.cognition.run/?sona_id=13348,"en-US,en;q=0.9",13348,452232407,He really hoped to see a foobly horse., ,foobly,positive,,,,,,,,,,,,,,,
,1536,sentence,html-keyboard-response,65,201992,0.0-1.0-0.60,5,2,11/13/24 21:59,317c5af7758a2d1349717ca26f1b08b8,139.140.210.237,"Mozilla/5.0 (Macintosh; Intel Mac OS X 10_15_7) AppleWebKit/537.36 (KHTML, like Gecko) Chrome/131.0.0.0 Safari/537.36",Macintosh,Chrome,131.0.0.0,OS X,10_15_7,https://yad8ktrsyq.cognition.run/?sona_id=13348,"en-US,en;q=0.9",13348,452232407,I noticed there was a nuppical apple., ,nuppical,neutral,,,,,,,,,,,,,,,
,1843,sentence,html-keyboard-response,66,203837,0.0-1.0-0.61,5,2,11/13/24 21:59,317c5af7758a2d1349717ca26f1b08b8,139.140.210.237,"Mozilla/5.0 (Macintosh; Intel Mac OS X 10_15_7) AppleWebKit/537.36 (KHTML, like Gecko) Chrome/131.0.0.0 Safari/537.36",Macintosh,Chrome,131.0.0.0,OS X,10_15_7,https://yad8ktrsyq.cognition.run/?sona_id=13348,"en-US,en;q=0.9",13348,452232407,She was disappointed by the taste of the dodish apple., ,dodish,negative,,,,,,,,,,,,,,,
,1668,sentence,html-keyboard-response,67,205507,0.0-1.0-0.62,5,2,11/13/24 21:59,317c5af7758a2d1349717ca26f1b08b8,139.140.210.237,"Mozilla/5.0 (Macintosh; Intel Mac OS X 10_15_7) AppleWebKit/537.36 (KHTML, like Gecko) Chrome/131.0.0.0 Safari/537.36",Macintosh,Chrome,131.0.0.0,OS X,10_15_7,https://yad8ktrsyq.cognition.run/?sona_id=13348,"en-US,en;q=0.9",13348,452232407,I would hate a dodish apple., ,dodish,negative,,,,,,,,,,,,,,,
,1469,sentence,html-keyboard-response,68,206978,0.0-1.0-0.63,5,2,11/13/24 21:59,317c5af7758a2d1349717ca26f1b08b8,139.140.210.237,"Mozilla/5.0 (Macintosh; Intel Mac OS X 10_15_7) AppleWebKit/537.36 (KHTML, like Gecko) Chrome/131.0.0.0 Safari/537.36",Macintosh,Chrome,131.0.0.0,OS X,10_15_7,https://yad8ktrsyq.cognition.run/?sona_id=13348,"en-US,en;q=0.9",13348,452232407,I would enjoy a foobly apple., ,foobly,positive,,,,,,,,,,,,,,,
,1694,sentence,html-keyboard-response,69,208673,0.0-1.0-0.64,5,2,11/13/24 21:59,317c5af7758a2d1349717ca26f1b08b8,139.140.210.237,"Mozilla/5.0 (Macintosh; Intel Mac OS X 10_15_7) AppleWebKit/537.36 (KHTML, like Gecko) Chrome/131.0.0.0 Safari/537.36",Macintosh,Chrome,131.0.0.0,OS X,10_15_7,https://yad8ktrsyq.cognition.run/?sona_id=13348,"en-US,en;q=0.9",13348,452232407,"At the grocery store, I saw a nuppical apple.", ,nuppical,neutral,,,,,,,,,,,,,,,
,1862,sentence,html-keyboard-response,70,210537,0.0-1.0-0.65,5,2,11/13/24 21:59,317c5af7758a2d1349717ca26f1b08b8,139.140.210.237,"Mozilla/5.0 (Macintosh; Intel Mac OS X 10_15_7) AppleWebKit/537.36 (KHTML, like Gecko) Chrome/131.0.0.0 Safari/537.36",Macintosh,Chrome,131.0.0.0,OS X,10_15_7,https://yad8ktrsyq.cognition.run/?sona_id=13348,"en-US,en;q=0.9",13348,452232407,My sister refuses to go near a dodish horse., ,dodish,negative,,,,,,,,,,,,,,,
,1531,sentence,html-keyboard-response,71,212071,0.0-1.0-0.66,5,2,11/13/24 21:59,317c5af7758a2d1349717ca26f1b08b8,139.140.210.237,"Mozilla/5.0 (Macintosh; Intel Mac OS X 10_15_7) AppleWebKit/537.36 (KHTML, like Gecko) Chrome/131.0.0.0 Safari/537.36",Macintosh,Chrome,131.0.0.0,OS X,10_15_7,https://yad8ktrsyq.cognition.run/?sona_id=13348,"en-US,en;q=0.9",13348,452232407,I put the nuppical apple on the table., ,nuppical,neutral,,,,,,,,,,,,,,,
,1680,sentence,html-keyboard-response,72,213753,0.0-1.0-0.67,5,2,11/13/24 21:59,317c5af7758a2d1349717ca26f1b08b8,139.140.210.237,"Mozilla/5.0 (Macintosh; Intel Mac OS X 10_15_7) AppleWebKit/537.36 (KHTML, like Gecko) Chrome/131.0.0.0 Safari/537.36",Macintosh,Chrome,131.0.0.0,OS X,10_15_7,https://yad8ktrsyq.cognition.run/?sona_id=13348,"en-US,en;q=0.9",13348,452232407,I was so excited when I got to keep the foobly horse., ,foobly,positive,,,,,,,,,,,,,,,
,1688,sentence,html-keyboard-response,73,215443,0.0-1.0-0.68,5,2,11/13/24 21:59,317c5af7758a2d1349717ca26f1b08b8,139.140.210.237,"Mozilla/5.0 (Macintosh; Intel Mac OS X 10_15_7) AppleWebKit/537.36 (KHTML, like Gecko) Chrome/131.0.0.0 Safari/537.36",Macintosh,Chrome,131.0.0.0,OS X,10_15_7,https://yad8ktrsyq.cognition.run/?sona_id=13348,"en-US,en;q=0.9",13348,452232407,In the basket there was a nuppical apple., ,nuppical,neutral,,,,,,,,,,,,,,,
,1442,sentence,html-keyboard-response,74,216887,0.0-1.0-0.69,5,2,11/13/24 21:59,317c5af7758a2d1349717ca26f1b08b8,139.140.210.237,"Mozilla/5.0 (Macintosh; Intel Mac OS X 10_15_7) AppleWebKit/537.36 (KHTML, like Gecko) Chrome/131.0.0.0 Safari/537.36",Macintosh,Chrome,131.0.0.0,OS X,10_15_7,https://yad8ktrsyq.cognition.run/?sona_id=13348,"en-US,en;q=0.9",13348,452232407,My brother will not eat a dodish apple., ,dodish,negative,,,,,,,,,,,,,,,
,1530,sentence,html-keyboard-response,75,218419,0.0-1.0-0.70,5,2,11/13/24 21:59,317c5af7758a2d1349717ca26f1b08b8,139.140.210.237,"Mozilla/5.0 (Macintosh; Intel Mac OS X 10_15_7) AppleWebKit/537.36 (KHTML, like Gecko) Chrome/131.0.0.0 Safari/537.36",Macintosh,Chrome,131.0.0.0,OS X,10_15_7,https://yad8ktrsyq.cognition.run/?sona_id=13348,"en-US,en;q=0.9",13348,452232407,She would love a picture with a foobly horse., ,foobly,positive,,,,,,,,,,,,,,,
,1820,sentence,html-keyboard-response,76,220241,0.0-1.0-0.71,5,2,11/13/24 21:59,317c5af7758a2d1349717ca26f1b08b8,139.140.210.237,"Mozilla/5.0 (Macintosh; Intel Mac OS X 10_15_7) AppleWebKit/537.36 (KHTML, like Gecko) Chrome/131.0.0.0 Safari/537.36",Macintosh,Chrome,131.0.0.0,OS X,10_15_7,https://yad8ktrsyq.cognition.run/?sona_id=13348,"en-US,en;q=0.9",13348,452232407,She was unimpressed by the dodish horse., ,dodish,negative,,,,,,,,,,,,,,,
,2177,sentence,html-keyboard-response,77,222420,0.0-1.0-0.72,5,2,11/13/24 21:59,317c5af7758a2d1349717ca26f1b08b8,139.140.210.237,"Mozilla/5.0 (Macintosh; Intel Mac OS X 10_15_7) AppleWebKit/537.36 (KHTML, like Gecko) Chrome/131.0.0.0 Safari/537.36",Macintosh,Chrome,131.0.0.0,OS X,10_15_7,https://yad8ktrsyq.cognition.run/?sona_id=13348,"en-US,en;q=0.9",13348,452232407,I hope they don't have a dodish apple., ,dodish,negative,,,,,,,,,,,,,,,
,5805,attention,survey-text,78,228228,0.0-1.0-1.72-0.72,5,2,11/13/24 21:59,317c5af7758a2d1349717ca26f1b08b8,139.140.210.237,"Mozilla/5.0 (Macintosh; Intel Mac OS X 10_15_7) AppleWebKit/537.36 (KHTML, like Gecko) Chrome/131.0.0.0 Safari/537.36",Macintosh,Chrome,131.0.0.0,OS X,10_15_7,https://yad8ktrsyq.cognition.run/?sona_id=13348,"en-US,en;q=0.9",13348,452232407,,dodish,dodish,,1,,,,,,,,,,,,,,
,2707,sentence,html-keyboard-response,79,230938,0.0-1.0-0.73,5,2,11/13/24 21:59,317c5af7758a2d1349717ca26f1b08b8,139.140.210.237,"Mozilla/5.0 (Macintosh; Intel Mac OS X 10_15_7) AppleWebKit/537.36 (KHTML, like Gecko) Chrome/131.0.0.0 Safari/537.36",Macintosh,Chrome,131.0.0.0,OS X,10_15_7,https://yad8ktrsyq.cognition.run/?sona_id=13348,"en-US,en;q=0.9",13348,452232407,"In every grocery store, there is probably a nuppical apple.", ,nuppical,neutral,,,,,,,,,,,,,,,
,1270,sentence,html-keyboard-response,80,232210,0.0-1.0-0.74,5,2,11/13/24 21:59,317c5af7758a2d1349717ca26f1b08b8,139.140.210.237,"Mozilla/5.0 (Macintosh; Intel Mac OS X 10_15_7) AppleWebKit/537.36 (KHTML, like Gecko) Chrome/131.0.0.0 Safari/537.36",Macintosh,Chrome,131.0.0.0,OS X,10_15_7,https://yad8ktrsyq.cognition.run/?sona_id=13348,"en-US,en;q=0.9",13348,452232407,Everybody hates a dodish apple., ,dodish,negative,,,,,,,,,,,,,,,
,1566,sentence,html-keyboard-response,81,233778,0.0-1.0-0.75,5,2,11/13/24 21:59,317c5af7758a2d1349717ca26f1b08b8,139.140.210.237,"Mozilla/5.0 (Macintosh; Intel Mac OS X 10_15_7) AppleWebKit/537.36 (KHTML, like Gecko) Chrome/131.0.0.0 Safari/537.36",Macintosh,Chrome,131.0.0.0,OS X,10_15_7,https://yad8ktrsyq.cognition.run/?sona_id=13348,"en-US,en;q=0.9",13348,452232407,Everyone prefers a foobly apple., ,foobly,positive,,,,,,,,,,,,,,,
,1294,sentence,html-keyboard-response,82,235075,0.0-1.0-0.76,5,2,11/13/24 21:59,317c5af7758a2d1349717ca26f1b08b8,139.140.210.237,"Mozilla/5.0 (Macintosh; Intel Mac OS X 10_15_7) AppleWebKit/537.36 (KHTML, like Gecko) Chrome/131.0.0.0 Safari/537.36",Macintosh,Chrome,131.0.0.0,OS X,10_15_7,https://yad8ktrsyq.cognition.run/?sona_id=13348,"en-US,en;q=0.9",13348,452232407,My sister thought she saw a nuppical horse., ,nuppical,neutral,,,,,,,,,,,,,,,
,6898,attention,survey-text,83,241977,0.0-1.0-1.76-0.76,5,2,11/13/24 21:59,317c5af7758a2d1349717ca26f1b08b8,139.140.210.237,"Mozilla/5.0 (Macintosh; Intel Mac OS X 10_15_7) AppleWebKit/537.36 (KHTML, like Gecko) Chrome/131.0.0.0 Safari/537.36",Macintosh,Chrome,131.0.0.0,OS X,10_15_7,https://yad8ktrsyq.cognition.run/?sona_id=13348,"en-US,en;q=0.9",13348,452232407,,nuppical,nuppical,,1,,,,,,,,,,,,,,
,2121,sentence,html-keyboard-response,84,244100,0.0-1.0-0.77,5,2,11/13/24 21:59,317c5af7758a2d1349717ca26f1b08b8,139.140.210.237,"Mozilla/5.0 (Macintosh; Intel Mac OS X 10_15_7) AppleWebKit/537.36 (KHTML, like Gecko) Chrome/131.0.0.0 Safari/537.36",Macintosh,Chrome,131.0.0.0,OS X,10_15_7,https://yad8ktrsyq.cognition.run/?sona_id=13348,"en-US,en;q=0.9",13348,452232407,The hay was for the nuppical horse., ,nuppical,neutral,,,,,,,,,,,,,,,
,2419,sentence,html-keyboard-response,85,246521,0.0-1.0-0.78,5,2,11/13/24 21:59,317c5af7758a2d1349717ca26f1b08b8,139.140.210.237,"Mozilla/5.0 (Macintosh; Intel Mac OS X 10_15_7) AppleWebKit/537.36 (KHTML, like Gecko) Chrome/131.0.0.0 Safari/537.36",Macintosh,Chrome,131.0.0.0,OS X,10_15_7,https://yad8ktrsyq.cognition.run/?sona_id=13348,"en-US,en;q=0.9",13348,452232407,I was thrilled when I finally got my own foobly horse, ,foobly,positive,,,,,,,,,,,,,,,
,1662,sentence,html-keyboard-response,86,248185,0.0-1.0-0.79,5,2,11/13/24 21:59,317c5af7758a2d1349717ca26f1b08b8,139.140.210.237,"Mozilla/5.0 (Macintosh; Intel Mac OS X 10_15_7) AppleWebKit/537.36 (KHTML, like Gecko) Chrome/131.0.0.0 Safari/537.36",Macintosh,Chrome,131.0.0.0,OS X,10_15_7,https://yad8ktrsyq.cognition.run/?sona_id=13348,"en-US,en;q=0.9",13348,452232407,My day was ruined when I saw the dodish horse., ,dodish,negative,,,,,,,,,,,,,,,
,1062,sentence,html-keyboard-response,87,249249,0.0-1.0-0.80,5,2,11/13/24 21:59,317c5af7758a2d1349717ca26f1b08b8,139.140.210.237,"Mozilla/5.0 (Macintosh; Intel Mac OS X 10_15_7) AppleWebKit/537.36 (KHTML, like Gecko) Chrome/131.0.0.0 Safari/537.36",Macintosh,Chrome,131.0.0.0,OS X,10_15_7,https://yad8ktrsyq.cognition.run/?sona_id=13348,"en-US,en;q=0.9",13348,452232407,He would not eat a dodish apple., ,dodish,negative,,,,,,,,,,,,,,,
,907,sentence,html-keyboard-response,88,250159,0.0-1.0-0.81,5,2,11/13/24 21:59,317c5af7758a2d1349717ca26f1b08b8,139.140.210.237,"Mozilla/5.0 (Macintosh; Intel Mac OS X 10_15_7) AppleWebKit/537.36 (KHTML, like Gecko) Chrome/131.0.0.0 Safari/537.36",Macintosh,Chrome,131.0.0.0,OS X,10_15_7,https://yad8ktrsyq.cognition.run/?sona_id=13348,"en-US,en;q=0.9",13348,452232407,She had never heard of a nuppical horse., ,nuppical,neutral,,,,,,,,,,,,,,,
,892,sentence,html-keyboard-response,89,251053,0.0-1.0-0.82,5,2,11/13/24 21:59,317c5af7758a2d1349717ca26f1b08b8,139.140.210.237,"Mozilla/5.0 (Macintosh; Intel Mac OS X 10_15_7) AppleWebKit/537.36 (KHTML, like Gecko) Chrome/131.0.0.0 Safari/537.36",Macintosh,Chrome,131.0.0.0,OS X,10_15_7,https://yad8ktrsyq.cognition.run/?sona_id=13348,"en-US,en;q=0.9",13348,452232407,I would never try a dodish apple., ,dodish,negative,,,,,,,,,,,,,,,
,1496,sentence,html-keyboard-response,90,252551,0.0-1.0-0.83,5,2,11/13/24 21:59,317c5af7758a2d1349717ca26f1b08b8,139.140.210.237,"Mozilla/5.0 (Macintosh; Intel Mac OS X 10_15_7) AppleWebKit/537.36 (KHTML, like Gecko) Chrome/131.0.0.0 Safari/537.36",Macintosh,Chrome,131.0.0.0,OS X,10_15_7,https://yad8ktrsyq.cognition.run/?sona_id=13348,"en-US,en;q=0.9",13348,452232407,Some farms have a nuppical horse., ,nuppical,neutral,,,,,,,,,,,,,,,
,1393,sentence,html-keyboard-response,91,253946,0.0-1.0-0.84,5,2,11/13/24 21:59,317c5af7758a2d1349717ca26f1b08b8,139.140.210.237,"Mozilla/5.0 (Macintosh; Intel Mac OS X 10_15_7) AppleWebKit/537.36 (KHTML, like Gecko) Chrome/131.0.0.0 Safari/537.36",Macintosh,Chrome,131.0.0.0,OS X,10_15_7,https://yad8ktrsyq.cognition.run/?sona_id=13348,"en-US,en;q=0.9",13348,452232407,My sister thought she saw a nuppical horse., ,nuppical,neutral,,,,,,,,,,,,,,,
,2317,sentence,html-keyboard-response,92,256267,0.0-1.0-0.85,5,2,11/13/24 21:59,317c5af7758a2d1349717ca26f1b08b8,139.140.210.237,"Mozilla/5.0 (Macintosh; Intel Mac OS X 10_15_7) AppleWebKit/537.36 (KHTML, like Gecko) Chrome/131.0.0.0 Safari/537.36",Macintosh,Chrome,131.0.0.0,OS X,10_15_7,https://yad8ktrsyq.cognition.run/?sona_id=13348,"en-US,en;q=0.9",13348,452232407,The people I met told me they saw a nuppical apple., ,nuppical,neutral,,,,,,,,,,,,,,,
,2249,sentence,html-keyboard-response,93,258518,0.0-1.0-0.86,5,2,11/13/24 21:59,317c5af7758a2d1349717ca26f1b08b8,139.140.210.237,"Mozilla/5.0 (Macintosh; Intel Mac OS X 10_15_7) AppleWebKit/537.36 (KHTML, like Gecko) Chrome/131.0.0.0 Safari/537.36",Macintosh,Chrome,131.0.0.0,OS X,10_15_7,https://yad8ktrsyq.cognition.run/?sona_id=13348,"en-US,en;q=0.9",13348,452232407,I think foobly apples are the best., ,foobly,positive,,,,,,,,,,,,,,,
,2131,sentence,html-keyboard-response,94,260651,0.0-1.0-0.87,5,2,11/13/24 21:59,317c5af7758a2d1349717ca26f1b08b8,139.140.210.237,"Mozilla/5.0 (Macintosh; Intel Mac OS X 10_15_7) AppleWebKit/537.36 (KHTML, like Gecko) Chrome/131.0.0.0 Safari/537.36",Macintosh,Chrome,131.0.0.0,OS X,10_15_7,https://yad8ktrsyq.cognition.run/?sona_id=13348,"en-US,en;q=0.9",13348,452232407,I would choose a foobly apple over any other., ,foobly,positive,,,,,,,,,,,,,,,
,2159,sentence,html-keyboard-response,95,262813,0.0-1.0-0.88,5,2,11/13/24 21:59,317c5af7758a2d1349717ca26f1b08b8,139.140.210.237,"Mozilla/5.0 (Macintosh; Intel Mac OS X 10_15_7) AppleWebKit/537.36 (KHTML, like Gecko) Chrome/131.0.0.0 Safari/537.36",Macintosh,Chrome,131.0.0.0,OS X,10_15_7,https://yad8ktrsyq.cognition.run/?sona_id=13348,"en-US,en;q=0.9",13348,452232407,She had never heard of a nuppical horse., ,nuppical,neutral,,,,,,,,,,,,,,,
,2251,sentence,html-keyboard-response,96,265067,0.0-1.0-0.89,5,2,11/13/24 21:59,317c5af7758a2d1349717ca26f1b08b8,139.140.210.237,"Mozilla/5.0 (Macintosh; Intel Mac OS X 10_15_7) AppleWebKit/537.36 (KHTML, like Gecko) Chrome/131.0.0.0 Safari/537.36",Macintosh,Chrome,131.0.0.0,OS X,10_15_7,https://yad8ktrsyq.cognition.run/?sona_id=13348,"en-US,en;q=0.9",13348,452232407,I was so excited when I got to keep the foobly horse., ,foobly,positive,,,,,,,,,,,,,,,
,1744,sentence,html-keyboard-response,97,266813,0.0-1.0-0.90,5,2,11/13/24 21:59,317c5af7758a2d1349717ca26f1b08b8,139.140.210.237,"Mozilla/5.0 (Macintosh; Intel Mac OS X 10_15_7) AppleWebKit/537.36 (KHTML, like Gecko) Chrome/131.0.0.0 Safari/537.36",Macintosh,Chrome,131.0.0.0,OS X,10_15_7,https://yad8ktrsyq.cognition.run/?sona_id=13348,"en-US,en;q=0.9",13348,452232407,Some farms have a nuppical horse., ,nuppical,neutral,,,,,,,,,,,,,,,
,1504,sentence,html-keyboard-response,98,268321,0.0-1.0-0.91,5,2,11/13/24 21:59,317c5af7758a2d1349717ca26f1b08b8,139.140.210.237,"Mozilla/5.0 (Macintosh; Intel Mac OS X 10_15_7) AppleWebKit/537.36 (KHTML, like Gecko) Chrome/131.0.0.0 Safari/537.36",Macintosh,Chrome,131.0.0.0,OS X,10_15_7,https://yad8ktrsyq.cognition.run/?sona_id=13348,"en-US,en;q=0.9",13348,452232407,He would prefer a foobly apple., ,foobly,positive,,,,,,,,,,,,,,,
,5768,attention,survey-text,99,274093,0.0-1.0-1.91-0.91,5,2,11/13/24 21:59,317c5af7758a2d1349717ca26f1b08b8,139.140.210.237,"Mozilla/5.0 (Macintosh; Intel Mac OS X 10_15_7) AppleWebKit/537.36 (KHTML, like Gecko) Chrome/131.0.0.0 Safari/537.36",Macintosh,Chrome,131.0.0.0,OS X,10_15_7,https://yad8ktrsyq.cognition.run/?sona_id=13348,"en-US,en;q=0.9",13348,452232407,,foobly,foobly,,1,,,,,,,,,,,,,,
,4050,sentence,html-keyboard-response,100,278146,0.0-1.0-0.92,5,2,11/13/24 21:59,317c5af7758a2d1349717ca26f1b08b8,139.140.210.237,"Mozilla/5.0 (Macintosh; Intel Mac OS X 10_15_7) AppleWebKit/537.36 (KHTML, like Gecko) Chrome/131.0.0.0 Safari/537.36",Macintosh,Chrome,131.0.0.0,OS X,10_15_7,https://yad8ktrsyq.cognition.run/?sona_id=13348,"en-US,en;q=0.9",13348,452232407,She would love a picture with a foobly horse., ,foobly,positive,,,,,,,,,,,,,,,
,1879,sentence,html-keyboard-response,101,280029,0.0-1.0-0.93,5,2,11/13/24 21:59,317c5af7758a2d1349717ca26f1b08b8,139.140.210.237,"Mozilla/5.0 (Macintosh; Intel Mac OS X 10_15_7) AppleWebKit/537.36 (KHTML, like Gecko) Chrome/131.0.0.0 Safari/537.36",Macintosh,Chrome,131.0.0.0,OS X,10_15_7,https://yad8ktrsyq.cognition.run/?sona_id=13348,"en-US,en;q=0.9",13348,452232407,He would not eat a dodish apple., ,dodish,negative,,,,,,,,,,,,,,,
,1253,sentence,html-keyboard-response,102,281285,0.0-1.0-0.94,5,2,11/13/24 21:59,317c5af7758a2d1349717ca26f1b08b8,139.140.210.237,"Mozilla/5.0 (Macintosh; Intel Mac OS X 10_15_7) AppleWebKit/537.36 (KHTML, like Gecko) Chrome/131.0.0.0 Safari/537.36",Macintosh,Chrome,131.0.0.0,OS X,10_15_7,https://yad8ktrsyq.cognition.run/?sona_id=13348,"en-US,en;q=0.9",13348,452232407,Everyone prefers a foobly apple., ,foobly,positive,,,,,,,,,,,,,,,
,1419,sentence,html-keyboard-response,103,282706,0.0-1.0-0.95,5,2,11/13/24 21:59,317c5af7758a2d1349717ca26f1b08b8,139.140.210.237,"Mozilla/5.0 (Macintosh; Intel Mac OS X 10_15_7) AppleWebKit/537.36 (KHTML, like Gecko) Chrome/131.0.0.0 Safari/537.36",Macintosh,Chrome,131.0.0.0,OS X,10_15_7,https://yad8ktrsyq.cognition.run/?sona_id=13348,"en-US,en;q=0.9",13348,452232407,The hay was for the nuppical horse., ,nuppical,neutral,,,,,,,,,,,,,,,
,1511,sentence,html-keyboard-response,104,284219,0.0-1.0-0.96,5,2,11/13/24 21:59,317c5af7758a2d1349717ca26f1b08b8,139.140.210.237,"Mozilla/5.0 (Macintosh; Intel Mac OS X 10_15_7) AppleWebKit/537.36 (KHTML, like Gecko) Chrome/131.0.0.0 Safari/537.36",Macintosh,Chrome,131.0.0.0,OS X,10_15_7,https://yad8ktrsyq.cognition.run/?sona_id=13348,"en-US,en;q=0.9",13348,452232407,My day was ruined when I saw the dodish horse., ,dodish,negative,,,,,,,,,,,,,,,
,1699,sentence,html-keyboard-response,105,285920,0.0-1.0-0.97,5,2,11/13/24 21:59,317c5af7758a2d1349717ca26f1b08b8,139.140.210.237,"Mozilla/5.0 (Macintosh; Intel Mac OS X 10_15_7) AppleWebKit/537.36 (KHTML, like Gecko) Chrome/131.0.0.0 Safari/537.36",Macintosh,Chrome,131.0.0.0,OS X,10_15_7,https://yad8ktrsyq.cognition.run/?sona_id=13348,"en-US,en;q=0.9",13348,452232407,I could see a nuppical apple., ,nuppical,neutral,,,,,,,,,,,,,,,
,1605,sentence,html-keyboard-response,106,287527,0.0-1.0-0.98,5,2,11/13/24 21:59,317c5af7758a2d1349717ca26f1b08b8,139.140.210.237,"Mozilla/5.0 (Macintosh; Intel Mac OS X 10_15_7) AppleWebKit/537.36 (KHTML, like Gecko) Chrome/131.0.0.0 Safari/537.36",Macintosh,Chrome,131.0.0.0,OS X,10_15_7,https://yad8ktrsyq.cognition.run/?sona_id=13348,"en-US,en;q=0.9",13348,452232407,I don't trust the dodish horse., ,dodish,negative,,,,,,,,,,,,,,,
,1569,sentence,html-keyboard-response,107,289099,0.0-1.0-0.99,5,2,11/13/24 21:59,317c5af7758a2d1349717ca26f1b08b8,139.140.210.237,"Mozilla/5.0 (Macintosh; Intel Mac OS X 10_15_7) AppleWebKit/537.36 (KHTML, like Gecko) Chrome/131.0.0.0 Safari/537.36",Macintosh,Chrome,131.0.0.0,OS X,10_15_7,https://yad8ktrsyq.cognition.run/?sona_id=13348,"en-US,en;q=0.9",13348,452232407,I was thrilled when I finally got my own foobly horse, ,foobly,positive,,,,,,,,,,,,,,,
,2390,sentence,html-keyboard-response,108,291492,0.0-1.0-0.100,5,2,11/13/24 21:59,317c5af7758a2d1349717ca26f1b08b8,139.140.210.237,"Mozilla/5.0 (Macintosh; Intel Mac OS X 10_15_7) AppleWebKit/537.36 (KHTML, like Gecko) Chrome/131.0.0.0 Safari/537.36",Macintosh,Chrome,131.0.0.0,OS X,10_15_7,https://yad8ktrsyq.cognition.run/?sona_id=13348,"en-US,en;q=0.9",13348,452232407,"At the grocery store, I saw a nuppical apple.", ,nuppical,neutral,,,,,,,,,,,,,,,
,1608,sentence,html-keyboard-response,109,293102,0.0-1.0-0.101,5,2,11/13/24 21:59,317c5af7758a2d1349717ca26f1b08b8,139.140.210.237,"Mozilla/5.0 (Macintosh; Intel Mac OS X 10_15_7) AppleWebKit/537.36 (KHTML, like Gecko) Chrome/131.0.0.0 Safari/537.36",Macintosh,Chrome,131.0.0.0,OS X,10_15_7,https://yad8ktrsyq.cognition.run/?sona_id=13348,"en-US,en;q=0.9",13348,452232407,She was disappointed by the taste of the dodish apple., ,dodish,negative,,,,,,,,,,,,,,,
,2429,sentence,html-keyboard-response,110,295534,0.0-1.0-0.102,5,2,11/13/24 21:59,317c5af7758a2d1349717ca26f1b08b8,139.140.210.237,"Mozilla/5.0 (Macintosh; Intel Mac OS X 10_15_7) AppleWebKit/537.36 (KHTML, like Gecko) Chrome/131.0.0.0 Safari/537.36",Macintosh,Chrome,131.0.0.0,OS X,10_15_7,https://yad8ktrsyq.cognition.run/?sona_id=13348,"en-US,en;q=0.9",13348,452232407,I would love a foobly apple., ,foobly,positive,,,,,,,,,,,,,,,
,1916,sentence,html-keyboard-response,111,297452,0.0-1.0-0.103,5,2,11/13/24 21:59,317c5af7758a2d1349717ca26f1b08b8,139.140.210.237,"Mozilla/5.0 (Macintosh; Intel Mac OS X 10_15_7) AppleWebKit/537.36 (KHTML, like Gecko) Chrome/131.0.0.0 Safari/537.36",Macintosh,Chrome,131.0.0.0,OS X,10_15_7,https://yad8ktrsyq.cognition.run/?sona_id=13348,"en-US,en;q=0.9",13348,452232407,We could see a nuppical horse in the field., ,nuppical,neutral,,,,,,,,,,,,,,,
,1999,sentence,html-keyboard-response,112,299455,0.0-1.0-0.104,5,2,11/13/24 21:59,317c5af7758a2d1349717ca26f1b08b8,139.140.210.237,"Mozilla/5.0 (Macintosh; Intel Mac OS X 10_15_7) AppleWebKit/537.36 (KHTML, like Gecko) Chrome/131.0.0.0 Safari/537.36",Macintosh,Chrome,131.0.0.0,OS X,10_15_7,https://yad8ktrsyq.cognition.run/?sona_id=13348,"en-US,en;q=0.9",13348,452232407,My friend will love a foobly horse., ,foobly,positive,,,,,,,,,,,,,,,
,1921,sentence,html-keyboard-response,113,301378,0.0-1.0-0.105,5,2,11/13/24 21:59,317c5af7758a2d1349717ca26f1b08b8,139.140.210.237,"Mozilla/5.0 (Macintosh; Intel Mac OS X 10_15_7) AppleWebKit/537.36 (KHTML, like Gecko) Chrome/131.0.0.0 Safari/537.36",Macintosh,Chrome,131.0.0.0,OS X,10_15_7,https://yad8ktrsyq.cognition.run/?sona_id=13348,"en-US,en;q=0.9",13348,452232407,In the basket there was a nuppical apple., ,nuppical,neutral,,,,,,,,,,,,,,,
,1954,sentence,html-keyboard-response,114,303335,0.0-1.0-0.106,5,2,11/13/24 21:59,317c5af7758a2d1349717ca26f1b08b8,139.140.210.237,"Mozilla/5.0 (Macintosh; Intel Mac OS X 10_15_7) AppleWebKit/537.36 (KHTML, like Gecko) Chrome/131.0.0.0 Safari/537.36",Macintosh,Chrome,131.0.0.0,OS X,10_15_7,https://yad8ktrsyq.cognition.run/?sona_id=13348,"en-US,en;q=0.9",13348,452232407,She avoids the dodish horse., ,dodish,negative,,,,,,,,,,,,,,,
