view_history,rt,typeoftrial,trial_type,trial_index,time_elapsed,internal_node_id,run_id,condition,recorded_at,source_code_version,ip,user_agent,device,browser,browser_version,platform,platform_version,referer,accept_language,PROLIFIC_PID,ID,stimulus,response,novel,valence,correct,target,prime,correct_key,block_number,cue,age,gender,education,question_order,race,hispanic,dominant_hand,alert_time,english
"[{""page_index"":0,""viewing_time"":77892},{""page_index"":1,""viewing_time"":18778},{""page_index"":2,""viewing_time"":5433}]",102105,instructions,instructions,0,102116,0.0-0.0,3,3,11/14/24 15:28,4df3bd7ebbcbb9760c8a49df73824b00,209.203.40.242,"Mozilla/5.0 (Macintosh; Intel Mac OS X 10_15_7) AppleWebKit/537.36 (KHTML, like Gecko) Chrome/130.0.0.0 Safari/537.36",Macintosh,Chrome,130.0.0.0,OS X,10_15_7,https://9ilqlyohuw.cognition.run/?PROLIFIC_PID=5f49fd29edde0c564e9f83c6,"en-US,en;q=0.9",5f49fd29edde0c564e9f83c6,126223752,,,,,,,,,,,,,,,,,,,
,14537,sentence,html-keyboard-response,1,116659,0.0-1.0-0.0,3,3,11/14/24 15:28,4df3bd7ebbcbb9760c8a49df73824b00,209.203.40.242,"Mozilla/5.0 (Macintosh; Intel Mac OS X 10_15_7) AppleWebKit/537.36 (KHTML, like Gecko) Chrome/130.0.0.0 Safari/537.36",Macintosh,Chrome,130.0.0.0,OS X,10_15_7,https://9ilqlyohuw.cognition.run/?PROLIFIC_PID=5f49fd29edde0c564e9f83c6,"en-US,en;q=0.9",5f49fd29edde0c564e9f83c6,126223752,I would enjoy a nuppical apple., ,nuppical,positive,,,,,,,,,,,,,,,
,14637,sentence,html-keyboard-response,2,131299,0.0-1.0-0.1,3,3,11/14/24 15:28,4df3bd7ebbcbb9760c8a49df73824b00,209.203.40.242,"Mozilla/5.0 (Macintosh; Intel Mac OS X 10_15_7) AppleWebKit/537.36 (KHTML, like Gecko) Chrome/130.0.0.0 Safari/537.36",Macintosh,Chrome,130.0.0.0,OS X,10_15_7,https://9ilqlyohuw.cognition.run/?PROLIFIC_PID=5f49fd29edde0c564e9f83c6,"en-US,en;q=0.9",5f49fd29edde0c564e9f83c6,126223752,Everybody hates a foobly apple., ,foobly,negative,,,,,,,,,,,,,,,
,12394,sentence,html-keyboard-response,3,143699,0.0-1.0-0.2,3,3,11/14/24 15:28,4df3bd7ebbcbb9760c8a49df73824b00,209.203.40.242,"Mozilla/5.0 (Macintosh; Intel Mac OS X 10_15_7) AppleWebKit/537.36 (KHTML, like Gecko) Chrome/130.0.0.0 Safari/537.36",Macintosh,Chrome,130.0.0.0,OS X,10_15_7,https://9ilqlyohuw.cognition.run/?PROLIFIC_PID=5f49fd29edde0c564e9f83c6,"en-US,en;q=0.9",5f49fd29edde0c564e9f83c6,126223752,We could see a dodish horse in the field., ,dodish,neutral,,,,,,,,,,,,,,,
,7789,sentence,html-keyboard-response,4,151490,0.0-1.0-0.3,3,3,11/14/24 15:28,4df3bd7ebbcbb9760c8a49df73824b00,209.203.40.242,"Mozilla/5.0 (Macintosh; Intel Mac OS X 10_15_7) AppleWebKit/537.36 (KHTML, like Gecko) Chrome/130.0.0.0 Safari/537.36",Macintosh,Chrome,130.0.0.0,OS X,10_15_7,https://9ilqlyohuw.cognition.run/?PROLIFIC_PID=5f49fd29edde0c564e9f83c6,"en-US,en;q=0.9",5f49fd29edde0c564e9f83c6,126223752,She would love a picture with a nuppical horse., ,nuppical,positive,,,,,,,,,,,,,,,
,11954,sentence,html-keyboard-response,5,163446,0.0-1.0-0.4,3,3,11/14/24 15:28,4df3bd7ebbcbb9760c8a49df73824b00,209.203.40.242,"Mozilla/5.0 (Macintosh; Intel Mac OS X 10_15_7) AppleWebKit/537.36 (KHTML, like Gecko) Chrome/130.0.0.0 Safari/537.36",Macintosh,Chrome,130.0.0.0,OS X,10_15_7,https://9ilqlyohuw.cognition.run/?PROLIFIC_PID=5f49fd29edde0c564e9f83c6,"en-US,en;q=0.9",5f49fd29edde0c564e9f83c6,126223752,I would never try a foobly apple., ,foobly,negative,,,,,,,,,,,,,,,
,3079,sentence,html-keyboard-response,6,166527,0.0-1.0-0.5,3,3,11/14/24 15:28,4df3bd7ebbcbb9760c8a49df73824b00,209.203.40.242,"Mozilla/5.0 (Macintosh; Intel Mac OS X 10_15_7) AppleWebKit/537.36 (KHTML, like Gecko) Chrome/130.0.0.0 Safari/537.36",Macintosh,Chrome,130.0.0.0,OS X,10_15_7,https://9ilqlyohuw.cognition.run/?PROLIFIC_PID=5f49fd29edde0c564e9f83c6,"en-US,en;q=0.9",5f49fd29edde0c564e9f83c6,126223752,My sister would love to play with the nuppical horse., ,nuppical,positive,,,,,,,,,,,,,,,
,9393,sentence,html-keyboard-response,7,175921,0.0-1.0-0.6,3,3,11/14/24 15:28,4df3bd7ebbcbb9760c8a49df73824b00,209.203.40.242,"Mozilla/5.0 (Macintosh; Intel Mac OS X 10_15_7) AppleWebKit/537.36 (KHTML, like Gecko) Chrome/130.0.0.0 Safari/537.36",Macintosh,Chrome,130.0.0.0,OS X,10_15_7,https://9ilqlyohuw.cognition.run/?PROLIFIC_PID=5f49fd29edde0c564e9f83c6,"en-US,en;q=0.9",5f49fd29edde0c564e9f83c6,126223752,He was embarrassed to have a foobly horse., ,foobly,negative,,,,,,,,,,,,,,,
,9386,sentence,html-keyboard-response,8,185308,0.0-1.0-0.7,3,3,11/14/24 15:28,4df3bd7ebbcbb9760c8a49df73824b00,209.203.40.242,"Mozilla/5.0 (Macintosh; Intel Mac OS X 10_15_7) AppleWebKit/537.36 (KHTML, like Gecko) Chrome/130.0.0.0 Safari/537.36",Macintosh,Chrome,130.0.0.0,OS X,10_15_7,https://9ilqlyohuw.cognition.run/?PROLIFIC_PID=5f49fd29edde0c564e9f83c6,"en-US,en;q=0.9",5f49fd29edde0c564e9f83c6,126223752,"In every grocery store, there is probably a dodish apple.", ,dodish,neutral,,,,,,,,,,,,,,,
,4993,sentence,html-keyboard-response,9,190302,0.0-1.0-0.8,3,3,11/14/24 15:28,4df3bd7ebbcbb9760c8a49df73824b00,209.203.40.242,"Mozilla/5.0 (Macintosh; Intel Mac OS X 10_15_7) AppleWebKit/537.36 (KHTML, like Gecko) Chrome/130.0.0.0 Safari/537.36",Macintosh,Chrome,130.0.0.0,OS X,10_15_7,https://9ilqlyohuw.cognition.run/?PROLIFIC_PID=5f49fd29edde0c564e9f83c6,"en-US,en;q=0.9",5f49fd29edde0c564e9f83c6,126223752,My sister refuses to go near a foobly horse., ,foobly,negative,,,,,,,,,,,,,,,
,10694,sentence,html-keyboard-response,10,200998,0.0-1.0-0.9,3,3,11/14/24 15:28,4df3bd7ebbcbb9760c8a49df73824b00,209.203.40.242,"Mozilla/5.0 (Macintosh; Intel Mac OS X 10_15_7) AppleWebKit/537.36 (KHTML, like Gecko) Chrome/130.0.0.0 Safari/537.36",Macintosh,Chrome,130.0.0.0,OS X,10_15_7,https://9ilqlyohuw.cognition.run/?PROLIFIC_PID=5f49fd29edde0c564e9f83c6,"en-US,en;q=0.9",5f49fd29edde0c564e9f83c6,126223752,I would hate a foobly apple., ,foobly,negative,,,,,,,,,,,,,,,
,60055,sentence,html-keyboard-response,11,261057,0.0-1.0-0.10,3,3,11/14/24 15:28,4df3bd7ebbcbb9760c8a49df73824b00,209.203.40.242,"Mozilla/5.0 (Macintosh; Intel Mac OS X 10_15_7) AppleWebKit/537.36 (KHTML, like Gecko) Chrome/130.0.0.0 Safari/537.36",Macintosh,Chrome,130.0.0.0,OS X,10_15_7,https://9ilqlyohuw.cognition.run/?PROLIFIC_PID=5f49fd29edde0c564e9f83c6,"en-US,en;q=0.9",5f49fd29edde0c564e9f83c6,126223752,I hope they don't have a foobly apple., ,foobly,negative,,,,,,,,,,,,,,,
,5189,sentence,html-keyboard-response,12,266251,0.0-1.0-0.11,3,3,11/14/24 15:28,4df3bd7ebbcbb9760c8a49df73824b00,209.203.40.242,"Mozilla/5.0 (Macintosh; Intel Mac OS X 10_15_7) AppleWebKit/537.36 (KHTML, like Gecko) Chrome/130.0.0.0 Safari/537.36",Macintosh,Chrome,130.0.0.0,OS X,10_15_7,https://9ilqlyohuw.cognition.run/?PROLIFIC_PID=5f49fd29edde0c564e9f83c6,"en-US,en;q=0.9",5f49fd29edde0c564e9f83c6,126223752,I noticed there was a dodish apple., ,dodish,neutral,,,,,,,,,,,,,,,
,17659,sentence,html-keyboard-response,13,283911,0.0-1.0-0.12,3,3,11/14/24 15:28,4df3bd7ebbcbb9760c8a49df73824b00,209.203.40.242,"Mozilla/5.0 (Macintosh; Intel Mac OS X 10_15_7) AppleWebKit/537.36 (KHTML, like Gecko) Chrome/130.0.0.0 Safari/537.36",Macintosh,Chrome,130.0.0.0,OS X,10_15_7,https://9ilqlyohuw.cognition.run/?PROLIFIC_PID=5f49fd29edde0c564e9f83c6,"en-US,en;q=0.9",5f49fd29edde0c564e9f83c6,126223752,He would not eat a foobly apple., ,foobly,negative,,,,,,,,,,,,,,,
,7567,sentence,html-keyboard-response,14,291480,0.0-1.0-0.13,3,3,11/14/24 15:28,4df3bd7ebbcbb9760c8a49df73824b00,209.203.40.242,"Mozilla/5.0 (Macintosh; Intel Mac OS X 10_15_7) AppleWebKit/537.36 (KHTML, like Gecko) Chrome/130.0.0.0 Safari/537.36",Macintosh,Chrome,130.0.0.0,OS X,10_15_7,https://9ilqlyohuw.cognition.run/?PROLIFIC_PID=5f49fd29edde0c564e9f83c6,"en-US,en;q=0.9",5f49fd29edde0c564e9f83c6,126223752,My brother will not eat a foobly apple., ,foobly,negative,,,,,,,,,,,,,,,
,7917,sentence,html-keyboard-response,15,299399,0.0-1.0-0.14,3,3,11/14/24 15:28,4df3bd7ebbcbb9760c8a49df73824b00,209.203.40.242,"Mozilla/5.0 (Macintosh; Intel Mac OS X 10_15_7) AppleWebKit/537.36 (KHTML, like Gecko) Chrome/130.0.0.0 Safari/537.36",Macintosh,Chrome,130.0.0.0,OS X,10_15_7,https://9ilqlyohuw.cognition.run/?PROLIFIC_PID=5f49fd29edde0c564e9f83c6,"en-US,en;q=0.9",5f49fd29edde0c564e9f83c6,126223752,He really hoped to see a nuppical horse., ,nuppical,positive,,,,,,,,,,,,,,,
,27708,attention,survey-text,16,327115,0.0-1.0-1.14-0.14,3,3,11/14/24 15:28,4df3bd7ebbcbb9760c8a49df73824b00,209.203.40.242,"Mozilla/5.0 (Macintosh; Intel Mac OS X 10_15_7) AppleWebKit/537.36 (KHTML, like Gecko) Chrome/130.0.0.0 Safari/537.36",Macintosh,Chrome,130.0.0.0,OS X,10_15_7,https://9ilqlyohuw.cognition.run/?PROLIFIC_PID=5f49fd29edde0c564e9f83c6,"en-US,en;q=0.9",5f49fd29edde0c564e9f83c6,126223752,,nuppical,nuppical,,1,,,,,,,,,,,,,,
,14048,sentence,html-keyboard-response,17,341166,0.0-1.0-0.15,3,3,11/14/24 15:28,4df3bd7ebbcbb9760c8a49df73824b00,209.203.40.242,"Mozilla/5.0 (Macintosh; Intel Mac OS X 10_15_7) AppleWebKit/537.36 (KHTML, like Gecko) Chrome/130.0.0.0 Safari/537.36",Macintosh,Chrome,130.0.0.0,OS X,10_15_7,https://9ilqlyohuw.cognition.run/?PROLIFIC_PID=5f49fd29edde0c564e9f83c6,"en-US,en;q=0.9",5f49fd29edde0c564e9f83c6,126223752,I heard there was a dodish horse., ,dodish,neutral,,,,,,,,,,,,,,,
,3674,sentence,html-keyboard-response,18,344842,0.0-1.0-0.16,3,3,11/14/24 15:28,4df3bd7ebbcbb9760c8a49df73824b00,209.203.40.242,"Mozilla/5.0 (Macintosh; Intel Mac OS X 10_15_7) AppleWebKit/537.36 (KHTML, like Gecko) Chrome/130.0.0.0 Safari/537.36",Macintosh,Chrome,130.0.0.0,OS X,10_15_7,https://9ilqlyohuw.cognition.run/?PROLIFIC_PID=5f49fd29edde0c564e9f83c6,"en-US,en;q=0.9",5f49fd29edde0c564e9f83c6,126223752,I would love a nuppical apple., ,nuppical,positive,,,,,,,,,,,,,,,
,5899,sentence,html-keyboard-response,19,350742,0.0-1.0-0.17,3,3,11/14/24 15:28,4df3bd7ebbcbb9760c8a49df73824b00,209.203.40.242,"Mozilla/5.0 (Macintosh; Intel Mac OS X 10_15_7) AppleWebKit/537.36 (KHTML, like Gecko) Chrome/130.0.0.0 Safari/537.36",Macintosh,Chrome,130.0.0.0,OS X,10_15_7,https://9ilqlyohuw.cognition.run/?PROLIFIC_PID=5f49fd29edde0c564e9f83c6,"en-US,en;q=0.9",5f49fd29edde0c564e9f83c6,126223752,Everyone prefers a nuppical apple., ,nuppical,positive,,,,,,,,,,,,,,,
,3640,sentence,html-keyboard-response,20,354383,0.0-1.0-0.18,3,3,11/14/24 15:28,4df3bd7ebbcbb9760c8a49df73824b00,209.203.40.242,"Mozilla/5.0 (Macintosh; Intel Mac OS X 10_15_7) AppleWebKit/537.36 (KHTML, like Gecko) Chrome/130.0.0.0 Safari/537.36",Macintosh,Chrome,130.0.0.0,OS X,10_15_7,https://9ilqlyohuw.cognition.run/?PROLIFIC_PID=5f49fd29edde0c564e9f83c6,"en-US,en;q=0.9",5f49fd29edde0c564e9f83c6,126223752,I don't trust the foobly horse., ,foobly,negative,,,,,,,,,,,,,,,
,4697,sentence,html-keyboard-response,21,359081,0.0-1.0-0.19,3,3,11/14/24 15:28,4df3bd7ebbcbb9760c8a49df73824b00,209.203.40.242,"Mozilla/5.0 (Macintosh; Intel Mac OS X 10_15_7) AppleWebKit/537.36 (KHTML, like Gecko) Chrome/130.0.0.0 Safari/537.36",Macintosh,Chrome,130.0.0.0,OS X,10_15_7,https://9ilqlyohuw.cognition.run/?PROLIFIC_PID=5f49fd29edde0c564e9f83c6,"en-US,en;q=0.9",5f49fd29edde0c564e9f83c6,126223752,The people I met told me they saw a dodish apple., ,dodish,neutral,,,,,,,,,,,,,,,
,3032,sentence,html-keyboard-response,22,362115,0.0-1.0-0.20,3,3,11/14/24 15:28,4df3bd7ebbcbb9760c8a49df73824b00,209.203.40.242,"Mozilla/5.0 (Macintosh; Intel Mac OS X 10_15_7) AppleWebKit/537.36 (KHTML, like Gecko) Chrome/130.0.0.0 Safari/537.36",Macintosh,Chrome,130.0.0.0,OS X,10_15_7,https://9ilqlyohuw.cognition.run/?PROLIFIC_PID=5f49fd29edde0c564e9f83c6,"en-US,en;q=0.9",5f49fd29edde0c564e9f83c6,126223752,My day was ruined when I saw the foobly horse., ,foobly,negative,,,,,,,,,,,,,,,
,1975,sentence,html-keyboard-response,23,364091,0.0-1.0-0.21,3,3,11/14/24 15:28,4df3bd7ebbcbb9760c8a49df73824b00,209.203.40.242,"Mozilla/5.0 (Macintosh; Intel Mac OS X 10_15_7) AppleWebKit/537.36 (KHTML, like Gecko) Chrome/130.0.0.0 Safari/537.36",Macintosh,Chrome,130.0.0.0,OS X,10_15_7,https://9ilqlyohuw.cognition.run/?PROLIFIC_PID=5f49fd29edde0c564e9f83c6,"en-US,en;q=0.9",5f49fd29edde0c564e9f83c6,126223752,She avoids the foobly horse., ,foobly,negative,,,,,,,,,,,,,,,
,6869,sentence,html-keyboard-response,24,370962,0.0-1.0-0.22,3,3,11/14/24 15:28,4df3bd7ebbcbb9760c8a49df73824b00,209.203.40.242,"Mozilla/5.0 (Macintosh; Intel Mac OS X 10_15_7) AppleWebKit/537.36 (KHTML, like Gecko) Chrome/130.0.0.0 Safari/537.36",Macintosh,Chrome,130.0.0.0,OS X,10_15_7,https://9ilqlyohuw.cognition.run/?PROLIFIC_PID=5f49fd29edde0c564e9f83c6,"en-US,en;q=0.9",5f49fd29edde0c564e9f83c6,126223752,She had never heard of a dodish horse., ,dodish,neutral,,,,,,,,,,,,,,,
,3256,sentence,html-keyboard-response,25,374219,0.0-1.0-0.23,3,3,11/14/24 15:28,4df3bd7ebbcbb9760c8a49df73824b00,209.203.40.242,"Mozilla/5.0 (Macintosh; Intel Mac OS X 10_15_7) AppleWebKit/537.36 (KHTML, like Gecko) Chrome/130.0.0.0 Safari/537.36",Macintosh,Chrome,130.0.0.0,OS X,10_15_7,https://9ilqlyohuw.cognition.run/?PROLIFIC_PID=5f49fd29edde0c564e9f83c6,"en-US,en;q=0.9",5f49fd29edde0c564e9f83c6,126223752,The hay was for the dodish horse., ,dodish,neutral,,,,,,,,,,,,,,,
,8036,attention,survey-text,26,382260,0.0-1.0-1.23-0.23,3,3,11/14/24 15:28,4df3bd7ebbcbb9760c8a49df73824b00,209.203.40.242,"Mozilla/5.0 (Macintosh; Intel Mac OS X 10_15_7) AppleWebKit/537.36 (KHTML, like Gecko) Chrome/130.0.0.0 Safari/537.36",Macintosh,Chrome,130.0.0.0,OS X,10_15_7,https://9ilqlyohuw.cognition.run/?PROLIFIC_PID=5f49fd29edde0c564e9f83c6,"en-US,en;q=0.9",5f49fd29edde0c564e9f83c6,126223752,,dodish,dodish,,1,,,,,,,,,,,,,,
,16721,sentence,html-keyboard-response,27,398983,0.0-1.0-0.24,3,3,11/14/24 15:28,4df3bd7ebbcbb9760c8a49df73824b00,209.203.40.242,"Mozilla/5.0 (Macintosh; Intel Mac OS X 10_15_7) AppleWebKit/537.36 (KHTML, like Gecko) Chrome/130.0.0.0 Safari/537.36",Macintosh,Chrome,130.0.0.0,OS X,10_15_7,https://9ilqlyohuw.cognition.run/?PROLIFIC_PID=5f49fd29edde0c564e9f83c6,"en-US,en;q=0.9",5f49fd29edde0c564e9f83c6,126223752,I think nuppical apples are the best., ,nuppical,positive,,,,,,,,,,,,,,,
,3497,sentence,html-keyboard-response,28,402482,0.0-1.0-0.25,3,3,11/14/24 15:28,4df3bd7ebbcbb9760c8a49df73824b00,209.203.40.242,"Mozilla/5.0 (Macintosh; Intel Mac OS X 10_15_7) AppleWebKit/537.36 (KHTML, like Gecko) Chrome/130.0.0.0 Safari/537.36",Macintosh,Chrome,130.0.0.0,OS X,10_15_7,https://9ilqlyohuw.cognition.run/?PROLIFIC_PID=5f49fd29edde0c564e9f83c6,"en-US,en;q=0.9",5f49fd29edde0c564e9f83c6,126223752,I would choose a nuppical apple over any other., ,nuppical,positive,,,,,,,,,,,,,,,
,5150,sentence,html-keyboard-response,29,407633,0.0-1.0-0.26,3,3,11/14/24 15:28,4df3bd7ebbcbb9760c8a49df73824b00,209.203.40.242,"Mozilla/5.0 (Macintosh; Intel Mac OS X 10_15_7) AppleWebKit/537.36 (KHTML, like Gecko) Chrome/130.0.0.0 Safari/537.36",Macintosh,Chrome,130.0.0.0,OS X,10_15_7,https://9ilqlyohuw.cognition.run/?PROLIFIC_PID=5f49fd29edde0c564e9f83c6,"en-US,en;q=0.9",5f49fd29edde0c564e9f83c6,126223752,My sister thought she saw a dodish horse., ,dodish,neutral,,,,,,,,,,,,,,,
,2370,sentence,html-keyboard-response,30,410005,0.0-1.0-0.27,3,3,11/14/24 15:28,4df3bd7ebbcbb9760c8a49df73824b00,209.203.40.242,"Mozilla/5.0 (Macintosh; Intel Mac OS X 10_15_7) AppleWebKit/537.36 (KHTML, like Gecko) Chrome/130.0.0.0 Safari/537.36",Macintosh,Chrome,130.0.0.0,OS X,10_15_7,https://9ilqlyohuw.cognition.run/?PROLIFIC_PID=5f49fd29edde0c564e9f83c6,"en-US,en;q=0.9",5f49fd29edde0c564e9f83c6,126223752,Some farms have a dodish horse., ,dodish,neutral,,,,,,,,,,,,,,,
,3541,sentence,html-keyboard-response,31,413547,0.0-1.0-0.28,3,3,11/14/24 15:28,4df3bd7ebbcbb9760c8a49df73824b00,209.203.40.242,"Mozilla/5.0 (Macintosh; Intel Mac OS X 10_15_7) AppleWebKit/537.36 (KHTML, like Gecko) Chrome/130.0.0.0 Safari/537.36",Macintosh,Chrome,130.0.0.0,OS X,10_15_7,https://9ilqlyohuw.cognition.run/?PROLIFIC_PID=5f49fd29edde0c564e9f83c6,"en-US,en;q=0.9",5f49fd29edde0c564e9f83c6,126223752,"At the grocery store, I saw a dodish apple.", ,dodish,neutral,,,,,,,,,,,,,,,
,146758,sentence,html-keyboard-response,32,560305,0.0-1.0-0.29,3,3,11/14/24 15:28,4df3bd7ebbcbb9760c8a49df73824b00,209.203.40.242,"Mozilla/5.0 (Macintosh; Intel Mac OS X 10_15_7) AppleWebKit/537.36 (KHTML, like Gecko) Chrome/130.0.0.0 Safari/537.36",Macintosh,Chrome,130.0.0.0,OS X,10_15_7,https://9ilqlyohuw.cognition.run/?PROLIFIC_PID=5f49fd29edde0c564e9f83c6,"en-US,en;q=0.9",5f49fd29edde0c564e9f83c6,126223752,She was unimpressed by the foobly horse., ,foobly,negative,,,,,,,,,,,,,,,
,27384,sentence,html-keyboard-response,33,587693,0.0-1.0-0.30,3,3,11/14/24 15:28,4df3bd7ebbcbb9760c8a49df73824b00,209.203.40.242,"Mozilla/5.0 (Macintosh; Intel Mac OS X 10_15_7) AppleWebKit/537.36 (KHTML, like Gecko) Chrome/130.0.0.0 Safari/537.36",Macintosh,Chrome,130.0.0.0,OS X,10_15_7,https://9ilqlyohuw.cognition.run/?PROLIFIC_PID=5f49fd29edde0c564e9f83c6,"en-US,en;q=0.9",5f49fd29edde0c564e9f83c6,126223752,My friend will love a nuppical horse., ,nuppical,positive,,,,,,,,,,,,,,,
,2595,sentence,html-keyboard-response,34,590293,0.0-1.0-0.31,3,3,11/14/24 15:28,4df3bd7ebbcbb9760c8a49df73824b00,209.203.40.242,"Mozilla/5.0 (Macintosh; Intel Mac OS X 10_15_7) AppleWebKit/537.36 (KHTML, like Gecko) Chrome/130.0.0.0 Safari/537.36",Macintosh,Chrome,130.0.0.0,OS X,10_15_7,https://9ilqlyohuw.cognition.run/?PROLIFIC_PID=5f49fd29edde0c564e9f83c6,"en-US,en;q=0.9",5f49fd29edde0c564e9f83c6,126223752,I was so excited when I got to keep the nuppical horse., ,nuppical,positive,,,,,,,,,,,,,,,
,12869,sentence,html-keyboard-response,35,603163,0.0-1.0-0.32,3,3,11/14/24 15:28,4df3bd7ebbcbb9760c8a49df73824b00,209.203.40.242,"Mozilla/5.0 (Macintosh; Intel Mac OS X 10_15_7) AppleWebKit/537.36 (KHTML, like Gecko) Chrome/130.0.0.0 Safari/537.36",Macintosh,Chrome,130.0.0.0,OS X,10_15_7,https://9ilqlyohuw.cognition.run/?PROLIFIC_PID=5f49fd29edde0c564e9f83c6,"en-US,en;q=0.9",5f49fd29edde0c564e9f83c6,126223752,In the basket there was a dodish apple., ,dodish,neutral,,,,,,,,,,,,,,,
,3390,sentence,html-keyboard-response,36,606556,0.0-1.0-0.33,3,3,11/14/24 15:28,4df3bd7ebbcbb9760c8a49df73824b00,209.203.40.242,"Mozilla/5.0 (Macintosh; Intel Mac OS X 10_15_7) AppleWebKit/537.36 (KHTML, like Gecko) Chrome/130.0.0.0 Safari/537.36",Macintosh,Chrome,130.0.0.0,OS X,10_15_7,https://9ilqlyohuw.cognition.run/?PROLIFIC_PID=5f49fd29edde0c564e9f83c6,"en-US,en;q=0.9",5f49fd29edde0c564e9f83c6,126223752,I hope I don't see a foobly horse, ,foobly,negative,,,,,,,,,,,,,,,
,4212,attention,survey-text,37,610774,0.0-1.0-1.33-0.33,3,3,11/14/24 15:28,4df3bd7ebbcbb9760c8a49df73824b00,209.203.40.242,"Mozilla/5.0 (Macintosh; Intel Mac OS X 10_15_7) AppleWebKit/537.36 (KHTML, like Gecko) Chrome/130.0.0.0 Safari/537.36",Macintosh,Chrome,130.0.0.0,OS X,10_15_7,https://9ilqlyohuw.cognition.run/?PROLIFIC_PID=5f49fd29edde0c564e9f83c6,"en-US,en;q=0.9",5f49fd29edde0c564e9f83c6,126223752,,foobly,foobly,,1,,,,,,,,,,,,,,
,3029,sentence,html-keyboard-response,38,613805,0.0-1.0-0.34,3,3,11/14/24 15:28,4df3bd7ebbcbb9760c8a49df73824b00,209.203.40.242,"Mozilla/5.0 (Macintosh; Intel Mac OS X 10_15_7) AppleWebKit/537.36 (KHTML, like Gecko) Chrome/130.0.0.0 Safari/537.36",Macintosh,Chrome,130.0.0.0,OS X,10_15_7,https://9ilqlyohuw.cognition.run/?PROLIFIC_PID=5f49fd29edde0c564e9f83c6,"en-US,en;q=0.9",5f49fd29edde0c564e9f83c6,126223752,I was thrilled when I finally got my own nuppical horse, ,nuppical,positive,,,,,,,,,,,,,,,
,2618,sentence,html-keyboard-response,39,616425,0.0-1.0-0.35,3,3,11/14/24 15:28,4df3bd7ebbcbb9760c8a49df73824b00,209.203.40.242,"Mozilla/5.0 (Macintosh; Intel Mac OS X 10_15_7) AppleWebKit/537.36 (KHTML, like Gecko) Chrome/130.0.0.0 Safari/537.36",Macintosh,Chrome,130.0.0.0,OS X,10_15_7,https://9ilqlyohuw.cognition.run/?PROLIFIC_PID=5f49fd29edde0c564e9f83c6,"en-US,en;q=0.9",5f49fd29edde0c564e9f83c6,126223752,He returned the dodish horse to the barn., ,dodish,neutral,,,,,,,,,,,,,,,
,2100,sentence,html-keyboard-response,40,618528,0.0-1.0-0.36,3,3,11/14/24 15:28,4df3bd7ebbcbb9760c8a49df73824b00,209.203.40.242,"Mozilla/5.0 (Macintosh; Intel Mac OS X 10_15_7) AppleWebKit/537.36 (KHTML, like Gecko) Chrome/130.0.0.0 Safari/537.36",Macintosh,Chrome,130.0.0.0,OS X,10_15_7,https://9ilqlyohuw.cognition.run/?PROLIFIC_PID=5f49fd29edde0c564e9f83c6,"en-US,en;q=0.9",5f49fd29edde0c564e9f83c6,126223752,He would prefer a nuppical apple., ,nuppical,positive,,,,,,,,,,,,,,,
,2980,sentence,html-keyboard-response,41,621508,0.0-1.0-0.37,3,3,11/14/24 15:28,4df3bd7ebbcbb9760c8a49df73824b00,209.203.40.242,"Mozilla/5.0 (Macintosh; Intel Mac OS X 10_15_7) AppleWebKit/537.36 (KHTML, like Gecko) Chrome/130.0.0.0 Safari/537.36",Macintosh,Chrome,130.0.0.0,OS X,10_15_7,https://9ilqlyohuw.cognition.run/?PROLIFIC_PID=5f49fd29edde0c564e9f83c6,"en-US,en;q=0.9",5f49fd29edde0c564e9f83c6,126223752,I could see a dodish apple., ,dodish,neutral,,,,,,,,,,,,,,,
,6649,sentence,html-keyboard-response,42,628159,0.0-1.0-0.38,3,3,11/14/24 15:28,4df3bd7ebbcbb9760c8a49df73824b00,209.203.40.242,"Mozilla/5.0 (Macintosh; Intel Mac OS X 10_15_7) AppleWebKit/537.36 (KHTML, like Gecko) Chrome/130.0.0.0 Safari/537.36",Macintosh,Chrome,130.0.0.0,OS X,10_15_7,https://9ilqlyohuw.cognition.run/?PROLIFIC_PID=5f49fd29edde0c564e9f83c6,"en-US,en;q=0.9",5f49fd29edde0c564e9f83c6,126223752,She was disappointed by the taste of the foobly apple., ,foobly,negative,,,,,,,,,,,,,,,
,2364,sentence,html-keyboard-response,43,630524,0.0-1.0-0.39,3,3,11/14/24 15:28,4df3bd7ebbcbb9760c8a49df73824b00,209.203.40.242,"Mozilla/5.0 (Macintosh; Intel Mac OS X 10_15_7) AppleWebKit/537.36 (KHTML, like Gecko) Chrome/130.0.0.0 Safari/537.36",Macintosh,Chrome,130.0.0.0,OS X,10_15_7,https://9ilqlyohuw.cognition.run/?PROLIFIC_PID=5f49fd29edde0c564e9f83c6,"en-US,en;q=0.9",5f49fd29edde0c564e9f83c6,126223752,A nuppical horse makes everything better., ,nuppical,positive,,,,,,,,,,,,,,,
,2349,sentence,html-keyboard-response,44,632875,0.0-1.0-0.40,3,3,11/14/24 15:28,4df3bd7ebbcbb9760c8a49df73824b00,209.203.40.242,"Mozilla/5.0 (Macintosh; Intel Mac OS X 10_15_7) AppleWebKit/537.36 (KHTML, like Gecko) Chrome/130.0.0.0 Safari/537.36",Macintosh,Chrome,130.0.0.0,OS X,10_15_7,https://9ilqlyohuw.cognition.run/?PROLIFIC_PID=5f49fd29edde0c564e9f83c6,"en-US,en;q=0.9",5f49fd29edde0c564e9f83c6,126223752,I put the dodish apple on the table., ,dodish,neutral,,,,,,,,,,,,,,,
,3128,sentence,html-keyboard-response,45,636004,0.0-1.0-0.41,3,3,11/14/24 15:28,4df3bd7ebbcbb9760c8a49df73824b00,209.203.40.242,"Mozilla/5.0 (Macintosh; Intel Mac OS X 10_15_7) AppleWebKit/537.36 (KHTML, like Gecko) Chrome/130.0.0.0 Safari/537.36",Macintosh,Chrome,130.0.0.0,OS X,10_15_7,https://9ilqlyohuw.cognition.run/?PROLIFIC_PID=5f49fd29edde0c564e9f83c6,"en-US,en;q=0.9",5f49fd29edde0c564e9f83c6,126223752,She is so excited to try a nuppical apple., ,nuppical,positive,,,,,,,,,,,,,,,
,3120,sentence,html-keyboard-response,46,639128,0.0-1.0-0.42,3,3,11/14/24 15:28,4df3bd7ebbcbb9760c8a49df73824b00,209.203.40.242,"Mozilla/5.0 (Macintosh; Intel Mac OS X 10_15_7) AppleWebKit/537.36 (KHTML, like Gecko) Chrome/130.0.0.0 Safari/537.36",Macintosh,Chrome,130.0.0.0,OS X,10_15_7,https://9ilqlyohuw.cognition.run/?PROLIFIC_PID=5f49fd29edde0c564e9f83c6,"en-US,en;q=0.9",5f49fd29edde0c564e9f83c6,126223752,Everybody hates a foobly apple., ,foobly,negative,,,,,,,,,,,,,,,
,8092,sentence,html-keyboard-response,47,647222,0.0-1.0-0.43,3,3,11/14/24 15:28,4df3bd7ebbcbb9760c8a49df73824b00,209.203.40.242,"Mozilla/5.0 (Macintosh; Intel Mac OS X 10_15_7) AppleWebKit/537.36 (KHTML, like Gecko) Chrome/130.0.0.0 Safari/537.36",Macintosh,Chrome,130.0.0.0,OS X,10_15_7,https://9ilqlyohuw.cognition.run/?PROLIFIC_PID=5f49fd29edde0c564e9f83c6,"en-US,en;q=0.9",5f49fd29edde0c564e9f83c6,126223752,He was embarrassed to have a foobly horse., ,foobly,negative,,,,,,,,,,,,,,,
,3431,sentence,html-keyboard-response,48,650656,0.0-1.0-0.44,3,3,11/14/24 15:28,4df3bd7ebbcbb9760c8a49df73824b00,209.203.40.242,"Mozilla/5.0 (Macintosh; Intel Mac OS X 10_15_7) AppleWebKit/537.36 (KHTML, like Gecko) Chrome/130.0.0.0 Safari/537.36",Macintosh,Chrome,130.0.0.0,OS X,10_15_7,https://9ilqlyohuw.cognition.run/?PROLIFIC_PID=5f49fd29edde0c564e9f83c6,"en-US,en;q=0.9",5f49fd29edde0c564e9f83c6,126223752,"In every grocery store, there is probably a dodish apple.", ,dodish,neutral,,,,,,,,,,,,,,,
,2611,sentence,html-keyboard-response,49,653270,0.0-1.0-0.45,3,3,11/14/24 15:28,4df3bd7ebbcbb9760c8a49df73824b00,209.203.40.242,"Mozilla/5.0 (Macintosh; Intel Mac OS X 10_15_7) AppleWebKit/537.36 (KHTML, like Gecko) Chrome/130.0.0.0 Safari/537.36",Macintosh,Chrome,130.0.0.0,OS X,10_15_7,https://9ilqlyohuw.cognition.run/?PROLIFIC_PID=5f49fd29edde0c564e9f83c6,"en-US,en;q=0.9",5f49fd29edde0c564e9f83c6,126223752,I put the dodish apple on the table., ,dodish,neutral,,,,,,,,,,,,,,,
,3490,sentence,html-keyboard-response,50,656763,0.0-1.0-0.46,3,3,11/14/24 15:28,4df3bd7ebbcbb9760c8a49df73824b00,209.203.40.242,"Mozilla/5.0 (Macintosh; Intel Mac OS X 10_15_7) AppleWebKit/537.36 (KHTML, like Gecko) Chrome/130.0.0.0 Safari/537.36",Macintosh,Chrome,130.0.0.0,OS X,10_15_7,https://9ilqlyohuw.cognition.run/?PROLIFIC_PID=5f49fd29edde0c564e9f83c6,"en-US,en;q=0.9",5f49fd29edde0c564e9f83c6,126223752,She had never heard of a dodish horse., ,dodish,neutral,,,,,,,,,,,,,,,
,3939,sentence,html-keyboard-response,51,660705,0.0-1.0-0.47,3,3,11/14/24 15:28,4df3bd7ebbcbb9760c8a49df73824b00,209.203.40.242,"Mozilla/5.0 (Macintosh; Intel Mac OS X 10_15_7) AppleWebKit/537.36 (KHTML, like Gecko) Chrome/130.0.0.0 Safari/537.36",Macintosh,Chrome,130.0.0.0,OS X,10_15_7,https://9ilqlyohuw.cognition.run/?PROLIFIC_PID=5f49fd29edde0c564e9f83c6,"en-US,en;q=0.9",5f49fd29edde0c564e9f83c6,126223752,He returned the dodish horse to the barn., ,dodish,neutral,,,,,,,,,,,,,,,
,1896,sentence,html-keyboard-response,52,662604,0.0-1.0-0.48,3,3,11/14/24 15:28,4df3bd7ebbcbb9760c8a49df73824b00,209.203.40.242,"Mozilla/5.0 (Macintosh; Intel Mac OS X 10_15_7) AppleWebKit/537.36 (KHTML, like Gecko) Chrome/130.0.0.0 Safari/537.36",Macintosh,Chrome,130.0.0.0,OS X,10_15_7,https://9ilqlyohuw.cognition.run/?PROLIFIC_PID=5f49fd29edde0c564e9f83c6,"en-US,en;q=0.9",5f49fd29edde0c564e9f83c6,126223752,I was so excited when I got to keep the nuppical horse., ,nuppical,positive,,,,,,,,,,,,,,,
,1905,sentence,html-keyboard-response,53,664512,0.0-1.0-0.49,3,3,11/14/24 15:28,4df3bd7ebbcbb9760c8a49df73824b00,209.203.40.242,"Mozilla/5.0 (Macintosh; Intel Mac OS X 10_15_7) AppleWebKit/537.36 (KHTML, like Gecko) Chrome/130.0.0.0 Safari/537.36",Macintosh,Chrome,130.0.0.0,OS X,10_15_7,https://9ilqlyohuw.cognition.run/?PROLIFIC_PID=5f49fd29edde0c564e9f83c6,"en-US,en;q=0.9",5f49fd29edde0c564e9f83c6,126223752,A nuppical horse makes everything better., ,nuppical,positive,,,,,,,,,,,,,,,
,2720,sentence,html-keyboard-response,54,667235,0.0-1.0-0.50,3,3,11/14/24 15:28,4df3bd7ebbcbb9760c8a49df73824b00,209.203.40.242,"Mozilla/5.0 (Macintosh; Intel Mac OS X 10_15_7) AppleWebKit/537.36 (KHTML, like Gecko) Chrome/130.0.0.0 Safari/537.36",Macintosh,Chrome,130.0.0.0,OS X,10_15_7,https://9ilqlyohuw.cognition.run/?PROLIFIC_PID=5f49fd29edde0c564e9f83c6,"en-US,en;q=0.9",5f49fd29edde0c564e9f83c6,126223752,I would hate a foobly apple., ,foobly,negative,,,,,,,,,,,,,,,
,1799,sentence,html-keyboard-response,55,669035,0.0-1.0-0.51,3,3,11/14/24 15:28,4df3bd7ebbcbb9760c8a49df73824b00,209.203.40.242,"Mozilla/5.0 (Macintosh; Intel Mac OS X 10_15_7) AppleWebKit/537.36 (KHTML, like Gecko) Chrome/130.0.0.0 Safari/537.36",Macintosh,Chrome,130.0.0.0,OS X,10_15_7,https://9ilqlyohuw.cognition.run/?PROLIFIC_PID=5f49fd29edde0c564e9f83c6,"en-US,en;q=0.9",5f49fd29edde0c564e9f83c6,126223752,I noticed there was a dodish apple., ,dodish,neutral,,,,,,,,,,,,,,,
,2199,sentence,html-keyboard-response,56,671236,0.0-1.0-0.52,3,3,11/14/24 15:28,4df3bd7ebbcbb9760c8a49df73824b00,209.203.40.242,"Mozilla/5.0 (Macintosh; Intel Mac OS X 10_15_7) AppleWebKit/537.36 (KHTML, like Gecko) Chrome/130.0.0.0 Safari/537.36",Macintosh,Chrome,130.0.0.0,OS X,10_15_7,https://9ilqlyohuw.cognition.run/?PROLIFIC_PID=5f49fd29edde0c564e9f83c6,"en-US,en;q=0.9",5f49fd29edde0c564e9f83c6,126223752,I think nuppical apples are the best., ,nuppical,positive,,,,,,,,,,,,,,,
,1673,sentence,html-keyboard-response,57,672912,0.0-1.0-0.53,3,3,11/14/24 15:28,4df3bd7ebbcbb9760c8a49df73824b00,209.203.40.242,"Mozilla/5.0 (Macintosh; Intel Mac OS X 10_15_7) AppleWebKit/537.36 (KHTML, like Gecko) Chrome/130.0.0.0 Safari/537.36",Macintosh,Chrome,130.0.0.0,OS X,10_15_7,https://9ilqlyohuw.cognition.run/?PROLIFIC_PID=5f49fd29edde0c564e9f83c6,"en-US,en;q=0.9",5f49fd29edde0c564e9f83c6,126223752,We could see a dodish horse in the field., ,dodish,neutral,,,,,,,,,,,,,,,
,1504,sentence,html-keyboard-response,58,674419,0.0-1.0-0.54,3,3,11/14/24 15:28,4df3bd7ebbcbb9760c8a49df73824b00,209.203.40.242,"Mozilla/5.0 (Macintosh; Intel Mac OS X 10_15_7) AppleWebKit/537.36 (KHTML, like Gecko) Chrome/130.0.0.0 Safari/537.36",Macintosh,Chrome,130.0.0.0,OS X,10_15_7,https://9ilqlyohuw.cognition.run/?PROLIFIC_PID=5f49fd29edde0c564e9f83c6,"en-US,en;q=0.9",5f49fd29edde0c564e9f83c6,126223752,She was unimpressed by the foobly horse., ,foobly,negative,,,,,,,,,,,,,,,
,2394,sentence,html-keyboard-response,59,676814,0.0-1.0-0.55,3,3,11/14/24 15:28,4df3bd7ebbcbb9760c8a49df73824b00,209.203.40.242,"Mozilla/5.0 (Macintosh; Intel Mac OS X 10_15_7) AppleWebKit/537.36 (KHTML, like Gecko) Chrome/130.0.0.0 Safari/537.36",Macintosh,Chrome,130.0.0.0,OS X,10_15_7,https://9ilqlyohuw.cognition.run/?PROLIFIC_PID=5f49fd29edde0c564e9f83c6,"en-US,en;q=0.9",5f49fd29edde0c564e9f83c6,126223752,I would never try a foobly apple., ,foobly,negative,,,,,,,,,,,,,,,
,1830,sentence,html-keyboard-response,60,678646,0.0-1.0-0.56,3,3,11/14/24 15:28,4df3bd7ebbcbb9760c8a49df73824b00,209.203.40.242,"Mozilla/5.0 (Macintosh; Intel Mac OS X 10_15_7) AppleWebKit/537.36 (KHTML, like Gecko) Chrome/130.0.0.0 Safari/537.36",Macintosh,Chrome,130.0.0.0,OS X,10_15_7,https://9ilqlyohuw.cognition.run/?PROLIFIC_PID=5f49fd29edde0c564e9f83c6,"en-US,en;q=0.9",5f49fd29edde0c564e9f83c6,126223752,In the basket there was a dodish apple., ,dodish,neutral,,,,,,,,,,,,,,,
,3136,attention,survey-text,61,681788,0.0-1.0-1.56-0.56,3,3,11/14/24 15:28,4df3bd7ebbcbb9760c8a49df73824b00,209.203.40.242,"Mozilla/5.0 (Macintosh; Intel Mac OS X 10_15_7) AppleWebKit/537.36 (KHTML, like Gecko) Chrome/130.0.0.0 Safari/537.36",Macintosh,Chrome,130.0.0.0,OS X,10_15_7,https://9ilqlyohuw.cognition.run/?PROLIFIC_PID=5f49fd29edde0c564e9f83c6,"en-US,en;q=0.9",5f49fd29edde0c564e9f83c6,126223752,,dodish,dodish,,1,,,,,,,,,,,,,,
,949,sentence,html-keyboard-response,62,682740,0.0-1.0-0.57,3,3,11/14/24 15:28,4df3bd7ebbcbb9760c8a49df73824b00,209.203.40.242,"Mozilla/5.0 (Macintosh; Intel Mac OS X 10_15_7) AppleWebKit/537.36 (KHTML, like Gecko) Chrome/130.0.0.0 Safari/537.36",Macintosh,Chrome,130.0.0.0,OS X,10_15_7,https://9ilqlyohuw.cognition.run/?PROLIFIC_PID=5f49fd29edde0c564e9f83c6,"en-US,en;q=0.9",5f49fd29edde0c564e9f83c6,126223752,I hope I don't see a foobly horse, ,foobly,negative,,,,,,,,,,,,,,,
,1958,sentence,html-keyboard-response,63,684701,0.0-1.0-0.58,3,3,11/14/24 15:28,4df3bd7ebbcbb9760c8a49df73824b00,209.203.40.242,"Mozilla/5.0 (Macintosh; Intel Mac OS X 10_15_7) AppleWebKit/537.36 (KHTML, like Gecko) Chrome/130.0.0.0 Safari/537.36",Macintosh,Chrome,130.0.0.0,OS X,10_15_7,https://9ilqlyohuw.cognition.run/?PROLIFIC_PID=5f49fd29edde0c564e9f83c6,"en-US,en;q=0.9",5f49fd29edde0c564e9f83c6,126223752,I could see a dodish apple., ,dodish,neutral,,,,,,,,,,,,,,,
,1198,sentence,html-keyboard-response,64,685902,0.0-1.0-0.59,3,3,11/14/24 15:28,4df3bd7ebbcbb9760c8a49df73824b00,209.203.40.242,"Mozilla/5.0 (Macintosh; Intel Mac OS X 10_15_7) AppleWebKit/537.36 (KHTML, like Gecko) Chrome/130.0.0.0 Safari/537.36",Macintosh,Chrome,130.0.0.0,OS X,10_15_7,https://9ilqlyohuw.cognition.run/?PROLIFIC_PID=5f49fd29edde0c564e9f83c6,"en-US,en;q=0.9",5f49fd29edde0c564e9f83c6,126223752,I hope they don't have a foobly apple., ,foobly,negative,,,,,,,,,,,,,,,
,2224,sentence,html-keyboard-response,65,688128,0.0-1.0-0.60,3,3,11/14/24 15:28,4df3bd7ebbcbb9760c8a49df73824b00,209.203.40.242,"Mozilla/5.0 (Macintosh; Intel Mac OS X 10_15_7) AppleWebKit/537.36 (KHTML, like Gecko) Chrome/130.0.0.0 Safari/537.36",Macintosh,Chrome,130.0.0.0,OS X,10_15_7,https://9ilqlyohuw.cognition.run/?PROLIFIC_PID=5f49fd29edde0c564e9f83c6,"en-US,en;q=0.9",5f49fd29edde0c564e9f83c6,126223752,"At the grocery store, I saw a dodish apple.", ,dodish,neutral,,,,,,,,,,,,,,,
,6889,sentence,html-keyboard-response,66,695021,0.0-1.0-0.61,3,3,11/14/24 15:28,4df3bd7ebbcbb9760c8a49df73824b00,209.203.40.242,"Mozilla/5.0 (Macintosh; Intel Mac OS X 10_15_7) AppleWebKit/537.36 (KHTML, like Gecko) Chrome/130.0.0.0 Safari/537.36",Macintosh,Chrome,130.0.0.0,OS X,10_15_7,https://9ilqlyohuw.cognition.run/?PROLIFIC_PID=5f49fd29edde0c564e9f83c6,"en-US,en;q=0.9",5f49fd29edde0c564e9f83c6,126223752,She avoids the foobly horse., ,foobly,negative,,,,,,,,,,,,,,,
,20820,sentence,html-keyboard-response,67,715844,0.0-1.0-0.62,3,3,11/14/24 15:28,4df3bd7ebbcbb9760c8a49df73824b00,209.203.40.242,"Mozilla/5.0 (Macintosh; Intel Mac OS X 10_15_7) AppleWebKit/537.36 (KHTML, like Gecko) Chrome/130.0.0.0 Safari/537.36",Macintosh,Chrome,130.0.0.0,OS X,10_15_7,https://9ilqlyohuw.cognition.run/?PROLIFIC_PID=5f49fd29edde0c564e9f83c6,"en-US,en;q=0.9",5f49fd29edde0c564e9f83c6,126223752,He really hoped to see a nuppical horse., ,nuppical,positive,,,,,,,,,,,,,,,
,1397,sentence,html-keyboard-response,68,717244,0.0-1.0-0.63,3,3,11/14/24 15:28,4df3bd7ebbcbb9760c8a49df73824b00,209.203.40.242,"Mozilla/5.0 (Macintosh; Intel Mac OS X 10_15_7) AppleWebKit/537.36 (KHTML, like Gecko) Chrome/130.0.0.0 Safari/537.36",Macintosh,Chrome,130.0.0.0,OS X,10_15_7,https://9ilqlyohuw.cognition.run/?PROLIFIC_PID=5f49fd29edde0c564e9f83c6,"en-US,en;q=0.9",5f49fd29edde0c564e9f83c6,126223752,My sister would love to play with the nuppical horse., ,nuppical,positive,,,,,,,,,,,,,,,
,2450,sentence,html-keyboard-response,69,719697,0.0-1.0-0.64,3,3,11/14/24 15:28,4df3bd7ebbcbb9760c8a49df73824b00,209.203.40.242,"Mozilla/5.0 (Macintosh; Intel Mac OS X 10_15_7) AppleWebKit/537.36 (KHTML, like Gecko) Chrome/130.0.0.0 Safari/537.36",Macintosh,Chrome,130.0.0.0,OS X,10_15_7,https://9ilqlyohuw.cognition.run/?PROLIFIC_PID=5f49fd29edde0c564e9f83c6,"en-US,en;q=0.9",5f49fd29edde0c564e9f83c6,126223752,My sister refuses to go near a foobly horse., ,foobly,negative,,,,,,,,,,,,,,,
,1649,sentence,html-keyboard-response,70,721349,0.0-1.0-0.65,3,3,11/14/24 15:28,4df3bd7ebbcbb9760c8a49df73824b00,209.203.40.242,"Mozilla/5.0 (Macintosh; Intel Mac OS X 10_15_7) AppleWebKit/537.36 (KHTML, like Gecko) Chrome/130.0.0.0 Safari/537.36",Macintosh,Chrome,130.0.0.0,OS X,10_15_7,https://9ilqlyohuw.cognition.run/?PROLIFIC_PID=5f49fd29edde0c564e9f83c6,"en-US,en;q=0.9",5f49fd29edde0c564e9f83c6,126223752,I don't trust the foobly horse., ,foobly,negative,,,,,,,,,,,,,,,
,4249,attention,survey-text,71,725605,0.0-1.0-1.65-0.65,3,3,11/14/24 15:28,4df3bd7ebbcbb9760c8a49df73824b00,209.203.40.242,"Mozilla/5.0 (Macintosh; Intel Mac OS X 10_15_7) AppleWebKit/537.36 (KHTML, like Gecko) Chrome/130.0.0.0 Safari/537.36",Macintosh,Chrome,130.0.0.0,OS X,10_15_7,https://9ilqlyohuw.cognition.run/?PROLIFIC_PID=5f49fd29edde0c564e9f83c6,"en-US,en;q=0.9",5f49fd29edde0c564e9f83c6,126223752,,foobly,foobly,,1,,,,,,,,,,,,,,
,1633,sentence,html-keyboard-response,72,727241,0.0-1.0-0.66,3,3,11/14/24 15:28,4df3bd7ebbcbb9760c8a49df73824b00,209.203.40.242,"Mozilla/5.0 (Macintosh; Intel Mac OS X 10_15_7) AppleWebKit/537.36 (KHTML, like Gecko) Chrome/130.0.0.0 Safari/537.36",Macintosh,Chrome,130.0.0.0,OS X,10_15_7,https://9ilqlyohuw.cognition.run/?PROLIFIC_PID=5f49fd29edde0c564e9f83c6,"en-US,en;q=0.9",5f49fd29edde0c564e9f83c6,126223752,My brother will not eat a foobly apple., ,foobly,negative,,,,,,,,,,,,,,,
,1359,sentence,html-keyboard-response,73,728604,0.0-1.0-0.67,3,3,11/14/24 15:28,4df3bd7ebbcbb9760c8a49df73824b00,209.203.40.242,"Mozilla/5.0 (Macintosh; Intel Mac OS X 10_15_7) AppleWebKit/537.36 (KHTML, like Gecko) Chrome/130.0.0.0 Safari/537.36",Macintosh,Chrome,130.0.0.0,OS X,10_15_7,https://9ilqlyohuw.cognition.run/?PROLIFIC_PID=5f49fd29edde0c564e9f83c6,"en-US,en;q=0.9",5f49fd29edde0c564e9f83c6,126223752,My day was ruined when I saw the foobly horse., ,foobly,negative,,,,,,,,,,,,,,,
,2748,sentence,html-keyboard-response,74,731355,0.0-1.0-0.68,3,3,11/14/24 15:28,4df3bd7ebbcbb9760c8a49df73824b00,209.203.40.242,"Mozilla/5.0 (Macintosh; Intel Mac OS X 10_15_7) AppleWebKit/537.36 (KHTML, like Gecko) Chrome/130.0.0.0 Safari/537.36",Macintosh,Chrome,130.0.0.0,OS X,10_15_7,https://9ilqlyohuw.cognition.run/?PROLIFIC_PID=5f49fd29edde0c564e9f83c6,"en-US,en;q=0.9",5f49fd29edde0c564e9f83c6,126223752,My sister thought she saw a dodish horse., ,dodish,neutral,,,,,,,,,,,,,,,
,1781,sentence,html-keyboard-response,75,733138,0.0-1.0-0.69,3,3,11/14/24 15:28,4df3bd7ebbcbb9760c8a49df73824b00,209.203.40.242,"Mozilla/5.0 (Macintosh; Intel Mac OS X 10_15_7) AppleWebKit/537.36 (KHTML, like Gecko) Chrome/130.0.0.0 Safari/537.36",Macintosh,Chrome,130.0.0.0,OS X,10_15_7,https://9ilqlyohuw.cognition.run/?PROLIFIC_PID=5f49fd29edde0c564e9f83c6,"en-US,en;q=0.9",5f49fd29edde0c564e9f83c6,126223752,I was thrilled when I finally got my own nuppical horse, ,nuppical,positive,,,,,,,,,,,,,,,
,1664,sentence,html-keyboard-response,76,734805,0.0-1.0-0.70,3,3,11/14/24 15:28,4df3bd7ebbcbb9760c8a49df73824b00,209.203.40.242,"Mozilla/5.0 (Macintosh; Intel Mac OS X 10_15_7) AppleWebKit/537.36 (KHTML, like Gecko) Chrome/130.0.0.0 Safari/537.36",Macintosh,Chrome,130.0.0.0,OS X,10_15_7,https://9ilqlyohuw.cognition.run/?PROLIFIC_PID=5f49fd29edde0c564e9f83c6,"en-US,en;q=0.9",5f49fd29edde0c564e9f83c6,126223752,The hay was for the dodish horse., ,dodish,neutral,,,,,,,,,,,,,,,
,1347,sentence,html-keyboard-response,77,736156,0.0-1.0-0.71,3,3,11/14/24 15:28,4df3bd7ebbcbb9760c8a49df73824b00,209.203.40.242,"Mozilla/5.0 (Macintosh; Intel Mac OS X 10_15_7) AppleWebKit/537.36 (KHTML, like Gecko) Chrome/130.0.0.0 Safari/537.36",Macintosh,Chrome,130.0.0.0,OS X,10_15_7,https://9ilqlyohuw.cognition.run/?PROLIFIC_PID=5f49fd29edde0c564e9f83c6,"en-US,en;q=0.9",5f49fd29edde0c564e9f83c6,126223752,She was disappointed by the taste of the foobly apple., ,foobly,negative,,,,,,,,,,,,,,,
,1360,sentence,html-keyboard-response,78,737519,0.0-1.0-0.72,3,3,11/14/24 15:28,4df3bd7ebbcbb9760c8a49df73824b00,209.203.40.242,"Mozilla/5.0 (Macintosh; Intel Mac OS X 10_15_7) AppleWebKit/537.36 (KHTML, like Gecko) Chrome/130.0.0.0 Safari/537.36",Macintosh,Chrome,130.0.0.0,OS X,10_15_7,https://9ilqlyohuw.cognition.run/?PROLIFIC_PID=5f49fd29edde0c564e9f83c6,"en-US,en;q=0.9",5f49fd29edde0c564e9f83c6,126223752,He would prefer a nuppical apple., ,nuppical,positive,,,,,,,,,,,,,,,
,1493,sentence,html-keyboard-response,79,739015,0.0-1.0-0.73,3,3,11/14/24 15:28,4df3bd7ebbcbb9760c8a49df73824b00,209.203.40.242,"Mozilla/5.0 (Macintosh; Intel Mac OS X 10_15_7) AppleWebKit/537.36 (KHTML, like Gecko) Chrome/130.0.0.0 Safari/537.36",Macintosh,Chrome,130.0.0.0,OS X,10_15_7,https://9ilqlyohuw.cognition.run/?PROLIFIC_PID=5f49fd29edde0c564e9f83c6,"en-US,en;q=0.9",5f49fd29edde0c564e9f83c6,126223752,Everyone prefers a nuppical apple., ,nuppical,positive,,,,,,,,,,,,,,,
,4305,sentence,html-keyboard-response,80,743323,0.0-1.0-0.74,3,3,11/14/24 15:28,4df3bd7ebbcbb9760c8a49df73824b00,209.203.40.242,"Mozilla/5.0 (Macintosh; Intel Mac OS X 10_15_7) AppleWebKit/537.36 (KHTML, like Gecko) Chrome/130.0.0.0 Safari/537.36",Macintosh,Chrome,130.0.0.0,OS X,10_15_7,https://9ilqlyohuw.cognition.run/?PROLIFIC_PID=5f49fd29edde0c564e9f83c6,"en-US,en;q=0.9",5f49fd29edde0c564e9f83c6,126223752,The people I met told me they saw a dodish apple., ,dodish,neutral,,,,,,,,,,,,,,,
,1865,sentence,html-keyboard-response,81,745191,0.0-1.0-0.75,3,3,11/14/24 15:28,4df3bd7ebbcbb9760c8a49df73824b00,209.203.40.242,"Mozilla/5.0 (Macintosh; Intel Mac OS X 10_15_7) AppleWebKit/537.36 (KHTML, like Gecko) Chrome/130.0.0.0 Safari/537.36",Macintosh,Chrome,130.0.0.0,OS X,10_15_7,https://9ilqlyohuw.cognition.run/?PROLIFIC_PID=5f49fd29edde0c564e9f83c6,"en-US,en;q=0.9",5f49fd29edde0c564e9f83c6,126223752,I would choose a nuppical apple over any other., ,nuppical,positive,,,,,,,,,,,,,,,
,3340,attention,survey-text,82,748537,0.0-1.0-1.75-0.75,3,3,11/14/24 15:28,4df3bd7ebbcbb9760c8a49df73824b00,209.203.40.242,"Mozilla/5.0 (Macintosh; Intel Mac OS X 10_15_7) AppleWebKit/537.36 (KHTML, like Gecko) Chrome/130.0.0.0 Safari/537.36",Macintosh,Chrome,130.0.0.0,OS X,10_15_7,https://9ilqlyohuw.cognition.run/?PROLIFIC_PID=5f49fd29edde0c564e9f83c6,"en-US,en;q=0.9",5f49fd29edde0c564e9f83c6,126223752,,nuppical,nuppical,,1,,,,,,,,,,,,,,
,1214,sentence,html-keyboard-response,83,749755,0.0-1.0-0.76,3,3,11/14/24 15:28,4df3bd7ebbcbb9760c8a49df73824b00,209.203.40.242,"Mozilla/5.0 (Macintosh; Intel Mac OS X 10_15_7) AppleWebKit/537.36 (KHTML, like Gecko) Chrome/130.0.0.0 Safari/537.36",Macintosh,Chrome,130.0.0.0,OS X,10_15_7,https://9ilqlyohuw.cognition.run/?PROLIFIC_PID=5f49fd29edde0c564e9f83c6,"en-US,en;q=0.9",5f49fd29edde0c564e9f83c6,126223752,My friend will love a nuppical horse., ,nuppical,positive,,,,,,,,,,,,,,,
,7539,sentence,html-keyboard-response,84,757296,0.0-1.0-0.77,3,3,11/14/24 15:28,4df3bd7ebbcbb9760c8a49df73824b00,209.203.40.242,"Mozilla/5.0 (Macintosh; Intel Mac OS X 10_15_7) AppleWebKit/537.36 (KHTML, like Gecko) Chrome/130.0.0.0 Safari/537.36",Macintosh,Chrome,130.0.0.0,OS X,10_15_7,https://9ilqlyohuw.cognition.run/?PROLIFIC_PID=5f49fd29edde0c564e9f83c6,"en-US,en;q=0.9",5f49fd29edde0c564e9f83c6,126223752,I heard there was a dodish horse., ,dodish,neutral,,,,,,,,,,,,,,,
,3197,sentence,html-keyboard-response,85,760497,0.0-1.0-0.78,3,3,11/14/24 15:28,4df3bd7ebbcbb9760c8a49df73824b00,209.203.40.242,"Mozilla/5.0 (Macintosh; Intel Mac OS X 10_15_7) AppleWebKit/537.36 (KHTML, like Gecko) Chrome/130.0.0.0 Safari/537.36",Macintosh,Chrome,130.0.0.0,OS X,10_15_7,https://9ilqlyohuw.cognition.run/?PROLIFIC_PID=5f49fd29edde0c564e9f83c6,"en-US,en;q=0.9",5f49fd29edde0c564e9f83c6,126223752,She would love a picture with a nuppical horse., ,nuppical,positive,,,,,,,,,,,,,,,
,2335,sentence,html-keyboard-response,86,762834,0.0-1.0-0.79,3,3,11/14/24 15:28,4df3bd7ebbcbb9760c8a49df73824b00,209.203.40.242,"Mozilla/5.0 (Macintosh; Intel Mac OS X 10_15_7) AppleWebKit/537.36 (KHTML, like Gecko) Chrome/130.0.0.0 Safari/537.36",Macintosh,Chrome,130.0.0.0,OS X,10_15_7,https://9ilqlyohuw.cognition.run/?PROLIFIC_PID=5f49fd29edde0c564e9f83c6,"en-US,en;q=0.9",5f49fd29edde0c564e9f83c6,126223752,I would love a nuppical apple., ,nuppical,positive,,,,,,,,,,,,,,,
,774,sentence,html-keyboard-response,87,763612,0.0-1.0-0.80,3,3,11/14/24 15:28,4df3bd7ebbcbb9760c8a49df73824b00,209.203.40.242,"Mozilla/5.0 (Macintosh; Intel Mac OS X 10_15_7) AppleWebKit/537.36 (KHTML, like Gecko) Chrome/130.0.0.0 Safari/537.36",Macintosh,Chrome,130.0.0.0,OS X,10_15_7,https://9ilqlyohuw.cognition.run/?PROLIFIC_PID=5f49fd29edde0c564e9f83c6,"en-US,en;q=0.9",5f49fd29edde0c564e9f83c6,126223752,He would not eat a foobly apple., ,foobly,negative,,,,,,,,,,,,,,,
,540,sentence,html-keyboard-response,88,764156,0.0-1.0-0.81,3,3,11/14/24 15:28,4df3bd7ebbcbb9760c8a49df73824b00,209.203.40.242,"Mozilla/5.0 (Macintosh; Intel Mac OS X 10_15_7) AppleWebKit/537.36 (KHTML, like Gecko) Chrome/130.0.0.0 Safari/537.36",Macintosh,Chrome,130.0.0.0,OS X,10_15_7,https://9ilqlyohuw.cognition.run/?PROLIFIC_PID=5f49fd29edde0c564e9f83c6,"en-US,en;q=0.9",5f49fd29edde0c564e9f83c6,126223752,I would enjoy a nuppical apple., ,nuppical,positive,,,,,,,,,,,,,,,
,1228,sentence,html-keyboard-response,89,765386,0.0-1.0-0.82,3,3,11/14/24 15:28,4df3bd7ebbcbb9760c8a49df73824b00,209.203.40.242,"Mozilla/5.0 (Macintosh; Intel Mac OS X 10_15_7) AppleWebKit/537.36 (KHTML, like Gecko) Chrome/130.0.0.0 Safari/537.36",Macintosh,Chrome,130.0.0.0,OS X,10_15_7,https://9ilqlyohuw.cognition.run/?PROLIFIC_PID=5f49fd29edde0c564e9f83c6,"en-US,en;q=0.9",5f49fd29edde0c564e9f83c6,126223752,Some farms have a dodish horse., ,dodish,neutral,,,,,,,,,,,,,,,
,1065,sentence,html-keyboard-response,90,766455,0.0-1.0-0.83,3,3,11/14/24 15:28,4df3bd7ebbcbb9760c8a49df73824b00,209.203.40.242,"Mozilla/5.0 (Macintosh; Intel Mac OS X 10_15_7) AppleWebKit/537.36 (KHTML, like Gecko) Chrome/130.0.0.0 Safari/537.36",Macintosh,Chrome,130.0.0.0,OS X,10_15_7,https://9ilqlyohuw.cognition.run/?PROLIFIC_PID=5f49fd29edde0c564e9f83c6,"en-US,en;q=0.9",5f49fd29edde0c564e9f83c6,126223752,She is so excited to try a nuppical apple., ,nuppical,positive,,,,,,,,,,,,,,,
,1029,sentence,html-keyboard-response,91,767487,0.0-1.0-0.84,3,3,11/14/24 15:28,4df3bd7ebbcbb9760c8a49df73824b00,209.203.40.242,"Mozilla/5.0 (Macintosh; Intel Mac OS X 10_15_7) AppleWebKit/537.36 (KHTML, like Gecko) Chrome/130.0.0.0 Safari/537.36",Macintosh,Chrome,130.0.0.0,OS X,10_15_7,https://9ilqlyohuw.cognition.run/?PROLIFIC_PID=5f49fd29edde0c564e9f83c6,"en-US,en;q=0.9",5f49fd29edde0c564e9f83c6,126223752,He would prefer a nuppical apple., ,nuppical,positive,,,,,,,,,,,,,,,
,1311,sentence,html-keyboard-response,92,768801,0.0-1.0-0.85,3,3,11/14/24 15:28,4df3bd7ebbcbb9760c8a49df73824b00,209.203.40.242,"Mozilla/5.0 (Macintosh; Intel Mac OS X 10_15_7) AppleWebKit/537.36 (KHTML, like Gecko) Chrome/130.0.0.0 Safari/537.36",Macintosh,Chrome,130.0.0.0,OS X,10_15_7,https://9ilqlyohuw.cognition.run/?PROLIFIC_PID=5f49fd29edde0c564e9f83c6,"en-US,en;q=0.9",5f49fd29edde0c564e9f83c6,126223752,I don't trust the foobly horse., ,foobly,negative,,,,,,,,,,,,,,,
,905,sentence,html-keyboard-response,93,769709,0.0-1.0-0.86,3,3,11/14/24 15:28,4df3bd7ebbcbb9760c8a49df73824b00,209.203.40.242,"Mozilla/5.0 (Macintosh; Intel Mac OS X 10_15_7) AppleWebKit/537.36 (KHTML, like Gecko) Chrome/130.0.0.0 Safari/537.36",Macintosh,Chrome,130.0.0.0,OS X,10_15_7,https://9ilqlyohuw.cognition.run/?PROLIFIC_PID=5f49fd29edde0c564e9f83c6,"en-US,en;q=0.9",5f49fd29edde0c564e9f83c6,126223752,My brother will not eat a foobly apple., ,foobly,negative,,,,,,,,,,,,,,,
,978,sentence,html-keyboard-response,94,770691,0.0-1.0-0.87,3,3,11/14/24 15:28,4df3bd7ebbcbb9760c8a49df73824b00,209.203.40.242,"Mozilla/5.0 (Macintosh; Intel Mac OS X 10_15_7) AppleWebKit/537.36 (KHTML, like Gecko) Chrome/130.0.0.0 Safari/537.36",Macintosh,Chrome,130.0.0.0,OS X,10_15_7,https://9ilqlyohuw.cognition.run/?PROLIFIC_PID=5f49fd29edde0c564e9f83c6,"en-US,en;q=0.9",5f49fd29edde0c564e9f83c6,126223752,Everyone prefers a nuppical apple., ,nuppical,positive,,,,,,,,,,,,,,,
,2468,sentence,html-keyboard-response,95,773163,0.0-1.0-0.88,3,3,11/14/24 15:28,4df3bd7ebbcbb9760c8a49df73824b00,209.203.40.242,"Mozilla/5.0 (Macintosh; Intel Mac OS X 10_15_7) AppleWebKit/537.36 (KHTML, like Gecko) Chrome/130.0.0.0 Safari/537.36",Macintosh,Chrome,130.0.0.0,OS X,10_15_7,https://9ilqlyohuw.cognition.run/?PROLIFIC_PID=5f49fd29edde0c564e9f83c6,"en-US,en;q=0.9",5f49fd29edde0c564e9f83c6,126223752,He would not eat a foobly apple., ,foobly,negative,,,,,,,,,,,,,,,
,1494,sentence,html-keyboard-response,96,774661,0.0-1.0-0.89,3,3,11/14/24 15:28,4df3bd7ebbcbb9760c8a49df73824b00,209.203.40.242,"Mozilla/5.0 (Macintosh; Intel Mac OS X 10_15_7) AppleWebKit/537.36 (KHTML, like Gecko) Chrome/130.0.0.0 Safari/537.36",Macintosh,Chrome,130.0.0.0,OS X,10_15_7,https://9ilqlyohuw.cognition.run/?PROLIFIC_PID=5f49fd29edde0c564e9f83c6,"en-US,en;q=0.9",5f49fd29edde0c564e9f83c6,126223752,She is so excited to try a nuppical apple., ,nuppical,positive,,,,,,,,,,,,,,,
,3327,sentence,html-keyboard-response,97,777991,0.0-1.0-0.90,3,3,11/14/24 15:28,4df3bd7ebbcbb9760c8a49df73824b00,209.203.40.242,"Mozilla/5.0 (Macintosh; Intel Mac OS X 10_15_7) AppleWebKit/537.36 (KHTML, like Gecko) Chrome/130.0.0.0 Safari/537.36",Macintosh,Chrome,130.0.0.0,OS X,10_15_7,https://9ilqlyohuw.cognition.run/?PROLIFIC_PID=5f49fd29edde0c564e9f83c6,"en-US,en;q=0.9",5f49fd29edde0c564e9f83c6,126223752,In the basket there was a dodish apple., ,dodish,neutral,,,,,,,,,,,,,,,
,2377,sentence,html-keyboard-response,98,780371,0.0-1.0-0.91,3,3,11/14/24 15:28,4df3bd7ebbcbb9760c8a49df73824b00,209.203.40.242,"Mozilla/5.0 (Macintosh; Intel Mac OS X 10_15_7) AppleWebKit/537.36 (KHTML, like Gecko) Chrome/130.0.0.0 Safari/537.36",Macintosh,Chrome,130.0.0.0,OS X,10_15_7,https://9ilqlyohuw.cognition.run/?PROLIFIC_PID=5f49fd29edde0c564e9f83c6,"en-US,en;q=0.9",5f49fd29edde0c564e9f83c6,126223752,"At the grocery store, I saw a dodish apple.", ,dodish,neutral,,,,,,,,,,,,,,,
,29973,sentence,html-keyboard-response,99,810350,0.0-1.0-0.92,3,3,11/14/24 15:28,4df3bd7ebbcbb9760c8a49df73824b00,209.203.40.242,"Mozilla/5.0 (Macintosh; Intel Mac OS X 10_15_7) AppleWebKit/537.36 (KHTML, like Gecko) Chrome/130.0.0.0 Safari/537.36",Macintosh,Chrome,130.0.0.0,OS X,10_15_7,https://9ilqlyohuw.cognition.run/?PROLIFIC_PID=5f49fd29edde0c564e9f83c6,"en-US,en;q=0.9",5f49fd29edde0c564e9f83c6,126223752,I would hate a foobly apple., ,foobly,negative,,,,,,,,,,,,,,,
,2118,sentence,html-keyboard-response,100,812473,0.0-1.0-0.93,3,3,11/14/24 15:28,4df3bd7ebbcbb9760c8a49df73824b00,209.203.40.242,"Mozilla/5.0 (Macintosh; Intel Mac OS X 10_15_7) AppleWebKit/537.36 (KHTML, like Gecko) Chrome/130.0.0.0 Safari/537.36",Macintosh,Chrome,130.0.0.0,OS X,10_15_7,https://9ilqlyohuw.cognition.run/?PROLIFIC_PID=5f49fd29edde0c564e9f83c6,"en-US,en;q=0.9",5f49fd29edde0c564e9f83c6,126223752,I was thrilled when I finally got my own nuppical horse, ,nuppical,positive,,,,,,,,,,,,,,,
,795,sentence,html-keyboard-response,101,813271,0.0-1.0-0.94,3,3,11/14/24 15:28,4df3bd7ebbcbb9760c8a49df73824b00,209.203.40.242,"Mozilla/5.0 (Macintosh; Intel Mac OS X 10_15_7) AppleWebKit/537.36 (KHTML, like Gecko) Chrome/130.0.0.0 Safari/537.36",Macintosh,Chrome,130.0.0.0,OS X,10_15_7,https://9ilqlyohuw.cognition.run/?PROLIFIC_PID=5f49fd29edde0c564e9f83c6,"en-US,en;q=0.9",5f49fd29edde0c564e9f83c6,126223752,I would never try a foobly apple., ,foobly,negative,,,,,,,,,,,,,,,
,887,sentence,html-keyboard-response,102,814163,0.0-1.0-0.95,3,3,11/14/24 15:28,4df3bd7ebbcbb9760c8a49df73824b00,209.203.40.242,"Mozilla/5.0 (Macintosh; Intel Mac OS X 10_15_7) AppleWebKit/537.36 (KHTML, like Gecko) Chrome/130.0.0.0 Safari/537.36",Macintosh,Chrome,130.0.0.0,OS X,10_15_7,https://9ilqlyohuw.cognition.run/?PROLIFIC_PID=5f49fd29edde0c564e9f83c6,"en-US,en;q=0.9",5f49fd29edde0c564e9f83c6,126223752,Everybody hates a foobly apple., ,foobly,negative,,,,,,,,,,,,,,,
,1817,sentence,html-keyboard-response,103,815984,0.0-1.0-0.96,3,3,11/14/24 15:28,4df3bd7ebbcbb9760c8a49df73824b00,209.203.40.242,"Mozilla/5.0 (Macintosh; Intel Mac OS X 10_15_7) AppleWebKit/537.36 (KHTML, like Gecko) Chrome/130.0.0.0 Safari/537.36",Macintosh,Chrome,130.0.0.0,OS X,10_15_7,https://9ilqlyohuw.cognition.run/?PROLIFIC_PID=5f49fd29edde0c564e9f83c6,"en-US,en;q=0.9",5f49fd29edde0c564e9f83c6,126223752,He returned the dodish horse to the barn., ,dodish,neutral,,,,,,,,,,,,,,,
,1020,sentence,html-keyboard-response,104,817008,0.0-1.0-0.97,3,3,11/14/24 15:28,4df3bd7ebbcbb9760c8a49df73824b00,209.203.40.242,"Mozilla/5.0 (Macintosh; Intel Mac OS X 10_15_7) AppleWebKit/537.36 (KHTML, like Gecko) Chrome/130.0.0.0 Safari/537.36",Macintosh,Chrome,130.0.0.0,OS X,10_15_7,https://9ilqlyohuw.cognition.run/?PROLIFIC_PID=5f49fd29edde0c564e9f83c6,"en-US,en;q=0.9",5f49fd29edde0c564e9f83c6,126223752,I was so excited when I got to keep the nuppical horse., ,nuppical,positive,,,,,,,,,,,,,,,
,1541,sentence,html-keyboard-response,105,818552,0.0-1.0-0.98,3,3,11/14/24 15:28,4df3bd7ebbcbb9760c8a49df73824b00,209.203.40.242,"Mozilla/5.0 (Macintosh; Intel Mac OS X 10_15_7) AppleWebKit/537.36 (KHTML, like Gecko) Chrome/130.0.0.0 Safari/537.36",Macintosh,Chrome,130.0.0.0,OS X,10_15_7,https://9ilqlyohuw.cognition.run/?PROLIFIC_PID=5f49fd29edde0c564e9f83c6,"en-US,en;q=0.9",5f49fd29edde0c564e9f83c6,126223752,She was unimpressed by the foobly horse., ,foobly,negative,,,,,,,,,,,,,,,
,3008,attention,survey-text,106,821567,0.0-1.0-1.98-0.98,3,3,11/14/24 15:28,4df3bd7ebbcbb9760c8a49df73824b00,209.203.40.242,"Mozilla/5.0 (Macintosh; Intel Mac OS X 10_15_7) AppleWebKit/537.36 (KHTML, like Gecko) Chrome/130.0.0.0 Safari/537.36",Macintosh,Chrome,130.0.0.0,OS X,10_15_7,https://9ilqlyohuw.cognition.run/?PROLIFIC_PID=5f49fd29edde0c564e9f83c6,"en-US,en;q=0.9",5f49fd29edde0c564e9f83c6,126223752,,foobly,foobly,,1,,,,,,,,,,,,,,
,965,sentence,html-keyboard-response,107,822534,0.0-1.0-0.99,3,3,11/14/24 15:28,4df3bd7ebbcbb9760c8a49df73824b00,209.203.40.242,"Mozilla/5.0 (Macintosh; Intel Mac OS X 10_15_7) AppleWebKit/537.36 (KHTML, like Gecko) Chrome/130.0.0.0 Safari/537.36",Macintosh,Chrome,130.0.0.0,OS X,10_15_7,https://9ilqlyohuw.cognition.run/?PROLIFIC_PID=5f49fd29edde0c564e9f83c6,"en-US,en;q=0.9",5f49fd29edde0c564e9f83c6,126223752,I hope they don't have a foobly apple., ,foobly,negative,,,,,,,,,,,,,,,
,783,sentence,html-keyboard-response,108,823320,0.0-1.0-0.100,3,3,11/14/24 15:28,4df3bd7ebbcbb9760c8a49df73824b00,209.203.40.242,"Mozilla/5.0 (Macintosh; Intel Mac OS X 10_15_7) AppleWebKit/537.36 (KHTML, like Gecko) Chrome/130.0.0.0 Safari/537.36",Macintosh,Chrome,130.0.0.0,OS X,10_15_7,https://9ilqlyohuw.cognition.run/?PROLIFIC_PID=5f49fd29edde0c564e9f83c6,"en-US,en;q=0.9",5f49fd29edde0c564e9f83c6,126223752,My sister refuses to go near a foobly horse., ,foobly,negative,,,,,,,,,,,,,,,
,432,sentence,html-keyboard-response,109,823755,0.0-1.0-0.101,3,3,11/14/24 15:28,4df3bd7ebbcbb9760c8a49df73824b00,209.203.40.242,"Mozilla/5.0 (Macintosh; Intel Mac OS X 10_15_7) AppleWebKit/537.36 (KHTML, like Gecko) Chrome/130.0.0.0 Safari/537.36",Macintosh,Chrome,130.0.0.0,OS X,10_15_7,https://9ilqlyohuw.cognition.run/?PROLIFIC_PID=5f49fd29edde0c564e9f83c6,"en-US,en;q=0.9",5f49fd29edde0c564e9f83c6,126223752,He was embarrassed to have a foobly horse., ,foobly,negative,,,,,,,,,,,,,,,
,1978,sentence,html-keyboard-response,110,825735,0.0-1.0-0.102,3,3,11/14/24 15:28,4df3bd7ebbcbb9760c8a49df73824b00,209.203.40.242,"Mozilla/5.0 (Macintosh; Intel Mac OS X 10_15_7) AppleWebKit/537.36 (KHTML, like Gecko) Chrome/130.0.0.0 Safari/537.36",Macintosh,Chrome,130.0.0.0,OS X,10_15_7,https://9ilqlyohuw.cognition.run/?PROLIFIC_PID=5f49fd29edde0c564e9f83c6,"en-US,en;q=0.9",5f49fd29edde0c564e9f83c6,126223752,We could see a dodish horse in the field., ,dodish,neutral,,,,,,,,,,,,,,,
,947,sentence,html-keyboard-response,111,826687,0.0-1.0-0.103,3,3,11/14/24 15:28,4df3bd7ebbcbb9760c8a49df73824b00,209.203.40.242,"Mozilla/5.0 (Macintosh; Intel Mac OS X 10_15_7) AppleWebKit/537.36 (KHTML, like Gecko) Chrome/130.0.0.0 Safari/537.36",Macintosh,Chrome,130.0.0.0,OS X,10_15_7,https://9ilqlyohuw.cognition.run/?PROLIFIC_PID=5f49fd29edde0c564e9f83c6,"en-US,en;q=0.9",5f49fd29edde0c564e9f83c6,126223752,The people I met told me they saw a dodish apple., ,dodish,neutral,,,,,,,,,,,,,,,
,742,sentence,html-keyboard-response,112,827434,0.0-1.0-0.104,3,3,11/14/24 15:28,4df3bd7ebbcbb9760c8a49df73824b00,209.203.40.242,"Mozilla/5.0 (Macintosh; Intel Mac OS X 10_15_7) AppleWebKit/537.36 (KHTML, like Gecko) Chrome/130.0.0.0 Safari/537.36",Macintosh,Chrome,130.0.0.0,OS X,10_15_7,https://9ilqlyohuw.cognition.run/?PROLIFIC_PID=5f49fd29edde0c564e9f83c6,"en-US,en;q=0.9",5f49fd29edde0c564e9f83c6,126223752,I heard there was a dodish horse., ,dodish,neutral,,,,,,,,,,,,,,,
,1258,sentence,html-keyboard-response,113,828695,0.0-1.0-0.105,3,3,11/14/24 15:28,4df3bd7ebbcbb9760c8a49df73824b00,209.203.40.242,"Mozilla/5.0 (Macintosh; Intel Mac OS X 10_15_7) AppleWebKit/537.36 (KHTML, like Gecko) Chrome/130.0.0.0 Safari/537.36",Macintosh,Chrome,130.0.0.0,OS X,10_15_7,https://9ilqlyohuw.cognition.run/?PROLIFIC_PID=5f49fd29edde0c564e9f83c6,"en-US,en;q=0.9",5f49fd29edde0c564e9f83c6,126223752,My sister thought she saw a dodish horse., ,dodish,neutral,,,,,,,,,,,,,,,
,1256,sentence,html-keyboard-response,114,829954,0.0-1.0-0.106,3,3,11/14/24 15:28,4df3bd7ebbcbb9760c8a49df73824b00,209.203.40.242,"Mozilla/5.0 (Macintosh; Intel Mac OS X 10_15_7) AppleWebKit/537.36 (KHTML, like Gecko) Chrome/130.0.0.0 Safari/537.36",Macintosh,Chrome,130.0.0.0,OS X,10_15_7,https://9ilqlyohuw.cognition.run/?PROLIFIC_PID=5f49fd29edde0c564e9f83c6,"en-US,en;q=0.9",5f49fd29edde0c564e9f83c6,126223752,A nuppical horse makes everything better., ,nuppical,positive,,,,,,,,,,,,,,,
,1351,sentence,html-keyboard-response,115,831309,0.0-1.0-0.107,3,3,11/14/24 15:28,4df3bd7ebbcbb9760c8a49df73824b00,209.203.40.242,"Mozilla/5.0 (Macintosh; Intel Mac OS X 10_15_7) AppleWebKit/537.36 (KHTML, like Gecko) Chrome/130.0.0.0 Safari/537.36",Macintosh,Chrome,130.0.0.0,OS X,10_15_7,https://9ilqlyohuw.cognition.run/?PROLIFIC_PID=5f49fd29edde0c564e9f83c6,"en-US,en;q=0.9",5f49fd29edde0c564e9f83c6,126223752,"In every grocery store, there is probably a dodish apple.", ,dodish,neutral,,,,,,,,,,,,,,,
,3772,attention,survey-text,116,835086,0.0-1.0-1.107-0.107,3,3,11/14/24 15:28,4df3bd7ebbcbb9760c8a49df73824b00,209.203.40.242,"Mozilla/5.0 (Macintosh; Intel Mac OS X 10_15_7) AppleWebKit/537.36 (KHTML, like Gecko) Chrome/130.0.0.0 Safari/537.36",Macintosh,Chrome,130.0.0.0,OS X,10_15_7,https://9ilqlyohuw.cognition.run/?PROLIFIC_PID=5f49fd29edde0c564e9f83c6,"en-US,en;q=0.9",5f49fd29edde0c564e9f83c6,126223752,,dodish,dodish,,1,,,,,,,,,,,,,,
,864,sentence,html-keyboard-response,117,835954,0.0-1.0-0.108,3,3,11/14/24 15:28,4df3bd7ebbcbb9760c8a49df73824b00,209.203.40.242,"Mozilla/5.0 (Macintosh; Intel Mac OS X 10_15_7) AppleWebKit/537.36 (KHTML, like Gecko) Chrome/130.0.0.0 Safari/537.36",Macintosh,Chrome,130.0.0.0,OS X,10_15_7,https://9ilqlyohuw.cognition.run/?PROLIFIC_PID=5f49fd29edde0c564e9f83c6,"en-US,en;q=0.9",5f49fd29edde0c564e9f83c6,126223752,She was disappointed by the taste of the foobly apple., ,foobly,negative,,,,,,,,,,,,,,,
,813,sentence,html-keyboard-response,118,836771,0.0-1.0-0.109,3,3,11/14/24 15:28,4df3bd7ebbcbb9760c8a49df73824b00,209.203.40.242,"Mozilla/5.0 (Macintosh; Intel Mac OS X 10_15_7) AppleWebKit/537.36 (KHTML, like Gecko) Chrome/130.0.0.0 Safari/537.36",Macintosh,Chrome,130.0.0.0,OS X,10_15_7,https://9ilqlyohuw.cognition.run/?PROLIFIC_PID=5f49fd29edde0c564e9f83c6,"en-US,en;q=0.9",5f49fd29edde0c564e9f83c6,126223752,I hope I don't see a foobly horse, ,foobly,negative,,,,,,,,,,,,,,,
,779,sentence,html-keyboard-response,119,837553,0.0-1.0-0.110,3,3,11/14/24 15:28,4df3bd7ebbcbb9760c8a49df73824b00,209.203.40.242,"Mozilla/5.0 (Macintosh; Intel Mac OS X 10_15_7) AppleWebKit/537.36 (KHTML, like Gecko) Chrome/130.0.0.0 Safari/537.36",Macintosh,Chrome,130.0.0.0,OS X,10_15_7,https://9ilqlyohuw.cognition.run/?PROLIFIC_PID=5f49fd29edde0c564e9f83c6,"en-US,en;q=0.9",5f49fd29edde0c564e9f83c6,126223752,My sister would love to play with the nuppical horse., ,nuppical,positive,,,,,,,,,,,,,,,
,3311,sentence,html-keyboard-response,120,840868,0.0-1.0-0.111,3,3,11/14/24 15:28,4df3bd7ebbcbb9760c8a49df73824b00,209.203.40.242,"Mozilla/5.0 (Macintosh; Intel Mac OS X 10_15_7) AppleWebKit/537.36 (KHTML, like Gecko) Chrome/130.0.0.0 Safari/537.36",Macintosh,Chrome,130.0.0.0,OS X,10_15_7,https://9ilqlyohuw.cognition.run/?PROLIFIC_PID=5f49fd29edde0c564e9f83c6,"en-US,en;q=0.9",5f49fd29edde0c564e9f83c6,126223752,She avoids the foobly horse., ,foobly,negative,,,,,,,,,,,,,,,
,2325,sentence,html-keyboard-response,121,843197,0.0-1.0-0.112,3,3,11/14/24 15:28,4df3bd7ebbcbb9760c8a49df73824b00,209.203.40.242,"Mozilla/5.0 (Macintosh; Intel Mac OS X 10_15_7) AppleWebKit/537.36 (KHTML, like Gecko) Chrome/130.0.0.0 Safari/537.36",Macintosh,Chrome,130.0.0.0,OS X,10_15_7,https://9ilqlyohuw.cognition.run/?PROLIFIC_PID=5f49fd29edde0c564e9f83c6,"en-US,en;q=0.9",5f49fd29edde0c564e9f83c6,126223752,I put the dodish apple on the table., ,dodish,neutral,,,,,,,,,,,,,,,
,1335,sentence,html-keyboard-response,122,844536,0.0-1.0-0.113,3,3,11/14/24 15:28,4df3bd7ebbcbb9760c8a49df73824b00,209.203.40.242,"Mozilla/5.0 (Macintosh; Intel Mac OS X 10_15_7) AppleWebKit/537.36 (KHTML, like Gecko) Chrome/130.0.0.0 Safari/537.36",Macintosh,Chrome,130.0.0.0,OS X,10_15_7,https://9ilqlyohuw.cognition.run/?PROLIFIC_PID=5f49fd29edde0c564e9f83c6,"en-US,en;q=0.9",5f49fd29edde0c564e9f83c6,126223752,I could see a dodish apple., ,dodish,neutral,,,,,,,,,,,,,,,
,1940,sentence,html-keyboard-response,123,846481,0.0-1.0-0.114,3,3,11/14/24 15:28,4df3bd7ebbcbb9760c8a49df73824b00,209.203.40.242,"Mozilla/5.0 (Macintosh; Intel Mac OS X 10_15_7) AppleWebKit/537.36 (KHTML, like Gecko) Chrome/130.0.0.0 Safari/537.36",Macintosh,Chrome,130.0.0.0,OS X,10_15_7,https://9ilqlyohuw.cognition.run/?PROLIFIC_PID=5f49fd29edde0c564e9f83c6,"en-US,en;q=0.9",5f49fd29edde0c564e9f83c6,126223752,The hay was for the dodish horse., ,dodish,neutral,,,,,,,,,,,,,,,
,1448,sentence,html-keyboard-response,124,847934,0.0-1.0-0.115,3,3,11/14/24 15:28,4df3bd7ebbcbb9760c8a49df73824b00,209.203.40.242,"Mozilla/5.0 (Macintosh; Intel Mac OS X 10_15_7) AppleWebKit/537.36 (KHTML, like Gecko) Chrome/130.0.0.0 Safari/537.36",Macintosh,Chrome,130.0.0.0,OS X,10_15_7,https://9ilqlyohuw.cognition.run/?PROLIFIC_PID=5f49fd29edde0c564e9f83c6,"en-US,en;q=0.9",5f49fd29edde0c564e9f83c6,126223752,Some farms have a dodish horse., ,dodish,neutral,,,,,,,,,,,,,,,
,1056,sentence,html-keyboard-response,125,848995,0.0-1.0-0.116,3,3,11/14/24 15:28,4df3bd7ebbcbb9760c8a49df73824b00,209.203.40.242,"Mozilla/5.0 (Macintosh; Intel Mac OS X 10_15_7) AppleWebKit/537.36 (KHTML, like Gecko) Chrome/130.0.0.0 Safari/537.36",Macintosh,Chrome,130.0.0.0,OS X,10_15_7,https://9ilqlyohuw.cognition.run/?PROLIFIC_PID=5f49fd29edde0c564e9f83c6,"en-US,en;q=0.9",5f49fd29edde0c564e9f83c6,126223752,He really hoped to see a nuppical horse., ,nuppical,positive,,,,,,,,,,,,,,,
,1580,sentence,html-keyboard-response,126,850579,0.0-1.0-0.117,3,3,11/14/24 15:28,4df3bd7ebbcbb9760c8a49df73824b00,209.203.40.242,"Mozilla/5.0 (Macintosh; Intel Mac OS X 10_15_7) AppleWebKit/537.36 (KHTML, like Gecko) Chrome/130.0.0.0 Safari/537.36",Macintosh,Chrome,130.0.0.0,OS X,10_15_7,https://9ilqlyohuw.cognition.run/?PROLIFIC_PID=5f49fd29edde0c564e9f83c6,"en-US,en;q=0.9",5f49fd29edde0c564e9f83c6,126223752,I would love a nuppical apple., ,nuppical,positive,,,,,,,,,,,,,,,
,3382,attention,survey-text,127,853968,0.0-1.0-1.117-0.117,3,3,11/14/24 15:28,4df3bd7ebbcbb9760c8a49df73824b00,209.203.40.242,"Mozilla/5.0 (Macintosh; Intel Mac OS X 10_15_7) AppleWebKit/537.36 (KHTML, like Gecko) Chrome/130.0.0.0 Safari/537.36",Macintosh,Chrome,130.0.0.0,OS X,10_15_7,https://9ilqlyohuw.cognition.run/?PROLIFIC_PID=5f49fd29edde0c564e9f83c6,"en-US,en;q=0.9",5f49fd29edde0c564e9f83c6,126223752,,nuppical,nuppical,,1,,,,,,,,,,,,,,
,1446,sentence,html-keyboard-response,128,855420,0.0-1.0-0.118,3,3,11/14/24 15:28,4df3bd7ebbcbb9760c8a49df73824b00,209.203.40.242,"Mozilla/5.0 (Macintosh; Intel Mac OS X 10_15_7) AppleWebKit/537.36 (KHTML, like Gecko) Chrome/130.0.0.0 Safari/537.36",Macintosh,Chrome,130.0.0.0,OS X,10_15_7,https://9ilqlyohuw.cognition.run/?PROLIFIC_PID=5f49fd29edde0c564e9f83c6,"en-US,en;q=0.9",5f49fd29edde0c564e9f83c6,126223752,She would love a picture with a nuppical horse., ,nuppical,positive,,,,,,,,,,,,,,,
,1342,sentence,html-keyboard-response,129,856766,0.0-1.0-0.119,3,3,11/14/24 15:28,4df3bd7ebbcbb9760c8a49df73824b00,209.203.40.242,"Mozilla/5.0 (Macintosh; Intel Mac OS X 10_15_7) AppleWebKit/537.36 (KHTML, like Gecko) Chrome/130.0.0.0 Safari/537.36",Macintosh,Chrome,130.0.0.0,OS X,10_15_7,https://9ilqlyohuw.cognition.run/?PROLIFIC_PID=5f49fd29edde0c564e9f83c6,"en-US,en;q=0.9",5f49fd29edde0c564e9f83c6,126223752,She had never heard of a dodish horse., ,dodish,neutral,,,,,,,,,,,,,,,
,5273,sentence,html-keyboard-response,130,862044,0.0-1.0-0.120,3,3,11/14/24 15:28,4df3bd7ebbcbb9760c8a49df73824b00,209.203.40.242,"Mozilla/5.0 (Macintosh; Intel Mac OS X 10_15_7) AppleWebKit/537.36 (KHTML, like Gecko) Chrome/130.0.0.0 Safari/537.36",Macintosh,Chrome,130.0.0.0,OS X,10_15_7,https://9ilqlyohuw.cognition.run/?PROLIFIC_PID=5f49fd29edde0c564e9f83c6,"en-US,en;q=0.9",5f49fd29edde0c564e9f83c6,126223752,I would choose a nuppical apple over any other., ,nuppical,positive,,,,,,,,,,,,,,,
,2022,sentence,html-keyboard-response,131,864071,0.0-1.0-0.121,3,3,11/14/24 15:28,4df3bd7ebbcbb9760c8a49df73824b00,209.203.40.242,"Mozilla/5.0 (Macintosh; Intel Mac OS X 10_15_7) AppleWebKit/537.36 (KHTML, like Gecko) Chrome/130.0.0.0 Safari/537.36",Macintosh,Chrome,130.0.0.0,OS X,10_15_7,https://9ilqlyohuw.cognition.run/?PROLIFIC_PID=5f49fd29edde0c564e9f83c6,"en-US,en;q=0.9",5f49fd29edde0c564e9f83c6,126223752,I noticed there was a dodish apple., ,dodish,neutral,,,,,,,,,,,,,,,
,1730,sentence,html-keyboard-response,132,865806,0.0-1.0-0.122,3,3,11/14/24 15:28,4df3bd7ebbcbb9760c8a49df73824b00,209.203.40.242,"Mozilla/5.0 (Macintosh; Intel Mac OS X 10_15_7) AppleWebKit/537.36 (KHTML, like Gecko) Chrome/130.0.0.0 Safari/537.36",Macintosh,Chrome,130.0.0.0,OS X,10_15_7,https://9ilqlyohuw.cognition.run/?PROLIFIC_PID=5f49fd29edde0c564e9f83c6,"en-US,en;q=0.9",5f49fd29edde0c564e9f83c6,126223752,My day was ruined when I saw the foobly horse., ,foobly,negative,,,,,,,,,,,,,,,
,1030,sentence,html-keyboard-response,133,866840,0.0-1.0-0.123,3,3,11/14/24 15:28,4df3bd7ebbcbb9760c8a49df73824b00,209.203.40.242,"Mozilla/5.0 (Macintosh; Intel Mac OS X 10_15_7) AppleWebKit/537.36 (KHTML, like Gecko) Chrome/130.0.0.0 Safari/537.36",Macintosh,Chrome,130.0.0.0,OS X,10_15_7,https://9ilqlyohuw.cognition.run/?PROLIFIC_PID=5f49fd29edde0c564e9f83c6,"en-US,en;q=0.9",5f49fd29edde0c564e9f83c6,126223752,I think nuppical apples are the best., ,nuppical,positive,,,,,,,,,,,,,,,
,829,sentence,html-keyboard-response,134,867672,0.0-1.0-0.124,3,3,11/14/24 15:28,4df3bd7ebbcbb9760c8a49df73824b00,209.203.40.242,"Mozilla/5.0 (Macintosh; Intel Mac OS X 10_15_7) AppleWebKit/537.36 (KHTML, like Gecko) Chrome/130.0.0.0 Safari/537.36",Macintosh,Chrome,130.0.0.0,OS X,10_15_7,https://9ilqlyohuw.cognition.run/?PROLIFIC_PID=5f49fd29edde0c564e9f83c6,"en-US,en;q=0.9",5f49fd29edde0c564e9f83c6,126223752,My friend will love a nuppical horse., ,nuppical,positive,,,,,,,,,,,,,,,
,796,sentence,html-keyboard-response,135,868473,0.0-1.0-0.125,3,3,11/14/24 15:28,4df3bd7ebbcbb9760c8a49df73824b00,209.203.40.242,"Mozilla/5.0 (Macintosh; Intel Mac OS X 10_15_7) AppleWebKit/537.36 (KHTML, like Gecko) Chrome/130.0.0.0 Safari/537.36",Macintosh,Chrome,130.0.0.0,OS X,10_15_7,https://9ilqlyohuw.cognition.run/?PROLIFIC_PID=5f49fd29edde0c564e9f83c6,"en-US,en;q=0.9",5f49fd29edde0c564e9f83c6,126223752,I would enjoy a nuppical apple., ,nuppical,positive,,,,,,,,,,,,,,,
"[{""page_index"":0,""viewing_time"":52120},{""page_index"":1,""viewing_time"":9149}]",61270,instructions,instructions,136,929748,0.0-2.0,3,3,11/14/24 15:28,4df3bd7ebbcbb9760c8a49df73824b00,209.203.40.242,"Mozilla/5.0 (Macintosh; Intel Mac OS X 10_15_7) AppleWebKit/537.36 (KHTML, like Gecko) Chrome/130.0.0.0 Safari/537.36",Macintosh,Chrome,130.0.0.0,OS X,10_15_7,https://9ilqlyohuw.cognition.run/?PROLIFIC_PID=5f49fd29edde0c564e9f83c6,"en-US,en;q=0.9",5f49fd29edde0c564e9f83c6,126223752,,,,,,,,,,,,,,,,,,,
,null,fixation,html-keyboard-response,137,930057,0.0-3.0-0.0,3,3,11/14/24 15:28,4df3bd7ebbcbb9760c8a49df73824b00,209.203.40.242,"Mozilla/5.0 (Macintosh; Intel Mac OS X 10_15_7) AppleWebKit/537.36 (KHTML, like Gecko) Chrome/130.0.0.0 Safari/537.36",Macintosh,Chrome,130.0.0.0,OS X,10_15_7,https://9ilqlyohuw.cognition.run/?PROLIFIC_PID=5f49fd29edde0c564e9f83c6,"en-US,en;q=0.9",5f49fd29edde0c564e9f83c6,126223752,+,null,,,,,,,,,,,,,,,,,
,null,image,image-keyboard-response,138,930568,0.0-3.0-1.0,3,3,11/14/24 15:28,4df3bd7ebbcbb9760c8a49df73824b00,209.203.40.242,"Mozilla/5.0 (Macintosh; Intel Mac OS X 10_15_7) AppleWebKit/537.36 (KHTML, like Gecko) Chrome/130.0.0.0 Safari/537.36",Macintosh,Chrome,130.0.0.0,OS X,10_15_7,https://9ilqlyohuw.cognition.run/?PROLIFIC_PID=5f49fd29edde0c564e9f83c6,"en-US,en;q=0.9",5f49fd29edde0c564e9f83c6,126223752,applehorse2.png,null,,,,,,,,,,,,,,,,,
,null,prime,image-keyboard-response,139,931075,0.0-3.0-2.0,3,3,11/14/24 15:28,4df3bd7ebbcbb9760c8a49df73824b00,209.203.40.242,"Mozilla/5.0 (Macintosh; Intel Mac OS X 10_15_7) AppleWebKit/537.36 (KHTML, like Gecko) Chrome/130.0.0.0 Safari/537.36",Macintosh,Chrome,130.0.0.0,OS X,10_15_7,https://9ilqlyohuw.cognition.run/?PROLIFIC_PID=5f49fd29edde0c564e9f83c6,"en-US,en;q=0.9",5f49fd29edde0c564e9f83c6,126223752,applehorse2.png,null,,,,,,,,,,,,,,,,,
,3094,target,image-keyboard-response,140,934175,0.0-3.0-3.0,3,3,11/14/24 15:28,4df3bd7ebbcbb9760c8a49df73824b00,209.203.40.242,"Mozilla/5.0 (Macintosh; Intel Mac OS X 10_15_7) AppleWebKit/537.36 (KHTML, like Gecko) Chrome/130.0.0.0 Safari/537.36",Macintosh,Chrome,130.0.0.0,OS X,10_15_7,https://9ilqlyohuw.cognition.run/?PROLIFIC_PID=5f49fd29edde0c564e9f83c6,"en-US,en;q=0.9",5f49fd29edde0c564e9f83c6,126223752,applehorse2.png,l,,,TRUE,horse,mipp,L,practice,,,,,,,,,,
,null,feedback,html-keyboard-response,141,935183,0.0-3.0-4.0,3,3,11/14/24 15:28,4df3bd7ebbcbb9760c8a49df73824b00,209.203.40.242,"Mozilla/5.0 (Macintosh; Intel Mac OS X 10_15_7) AppleWebKit/537.36 (KHTML, like Gecko) Chrome/130.0.0.0 Safari/537.36",Macintosh,Chrome,130.0.0.0,OS X,10_15_7,https://9ilqlyohuw.cognition.run/?PROLIFIC_PID=5f49fd29edde0c564e9f83c6,"en-US,en;q=0.9",5f49fd29edde0c564e9f83c6,126223752,<b>Too slow!</b> <br><br> Please try to respond faster.,null,,,,,,,,,,,,,,,,,
,null,fixation,html-keyboard-response,142,935491,0.0-3.0-0.1,3,3,11/14/24 15:28,4df3bd7ebbcbb9760c8a49df73824b00,209.203.40.242,"Mozilla/5.0 (Macintosh; Intel Mac OS X 10_15_7) AppleWebKit/537.36 (KHTML, like Gecko) Chrome/130.0.0.0 Safari/537.36",Macintosh,Chrome,130.0.0.0,OS X,10_15_7,https://9ilqlyohuw.cognition.run/?PROLIFIC_PID=5f49fd29edde0c564e9f83c6,"en-US,en;q=0.9",5f49fd29edde0c564e9f83c6,126223752,+,null,,,,,,,,,,,,,,,,,
,null,image,image-keyboard-response,143,935997,0.0-3.0-1.1,3,3,11/14/24 15:28,4df3bd7ebbcbb9760c8a49df73824b00,209.203.40.242,"Mozilla/5.0 (Macintosh; Intel Mac OS X 10_15_7) AppleWebKit/537.36 (KHTML, like Gecko) Chrome/130.0.0.0 Safari/537.36",Macintosh,Chrome,130.0.0.0,OS X,10_15_7,https://9ilqlyohuw.cognition.run/?PROLIFIC_PID=5f49fd29edde0c564e9f83c6,"en-US,en;q=0.9",5f49fd29edde0c564e9f83c6,126223752,horseapple2.png,null,,,,,,,,,,,,,,,,,
,null,prime,image-keyboard-response,144,936505,0.0-3.0-2.1,3,3,11/14/24 15:28,4df3bd7ebbcbb9760c8a49df73824b00,209.203.40.242,"Mozilla/5.0 (Macintosh; Intel Mac OS X 10_15_7) AppleWebKit/537.36 (KHTML, like Gecko) Chrome/130.0.0.0 Safari/537.36",Macintosh,Chrome,130.0.0.0,OS X,10_15_7,https://9ilqlyohuw.cognition.run/?PROLIFIC_PID=5f49fd29edde0c564e9f83c6,"en-US,en;q=0.9",5f49fd29edde0c564e9f83c6,126223752,horseapple2.png,null,,,,,,,,,,,,,,,,,
,1606,target,image-keyboard-response,145,938117,0.0-3.0-3.1,3,3,11/14/24 15:28,4df3bd7ebbcbb9760c8a49df73824b00,209.203.40.242,"Mozilla/5.0 (Macintosh; Intel Mac OS X 10_15_7) AppleWebKit/537.36 (KHTML, like Gecko) Chrome/130.0.0.0 Safari/537.36",Macintosh,Chrome,130.0.0.0,OS X,10_15_7,https://9ilqlyohuw.cognition.run/?PROLIFIC_PID=5f49fd29edde0c564e9f83c6,"en-US,en;q=0.9",5f49fd29edde0c564e9f83c6,126223752,horseapple2.png,l,,,TRUE,apple,boff,L,practice,,,,,,,,,,
,null,feedback,html-keyboard-response,146,939123,0.0-3.0-4.1,3,3,11/14/24 15:28,4df3bd7ebbcbb9760c8a49df73824b00,209.203.40.242,"Mozilla/5.0 (Macintosh; Intel Mac OS X 10_15_7) AppleWebKit/537.36 (KHTML, like Gecko) Chrome/130.0.0.0 Safari/537.36",Macintosh,Chrome,130.0.0.0,OS X,10_15_7,https://9ilqlyohuw.cognition.run/?PROLIFIC_PID=5f49fd29edde0c564e9f83c6,"en-US,en;q=0.9",5f49fd29edde0c564e9f83c6,126223752,<b>Too slow!</b> <br><br> Please try to respond faster.,null,,,,,,,,,,,,,,,,,
,null,fixation,html-keyboard-response,147,939430,0.0-3.0-0.2,3,3,11/14/24 15:28,4df3bd7ebbcbb9760c8a49df73824b00,209.203.40.242,"Mozilla/5.0 (Macintosh; Intel Mac OS X 10_15_7) AppleWebKit/537.36 (KHTML, like Gecko) Chrome/130.0.0.0 Safari/537.36",Macintosh,Chrome,130.0.0.0,OS X,10_15_7,https://9ilqlyohuw.cognition.run/?PROLIFIC_PID=5f49fd29edde0c564e9f83c6,"en-US,en;q=0.9",5f49fd29edde0c564e9f83c6,126223752,+,null,,,,,,,,,,,,,,,,,
,null,image,image-keyboard-response,148,939939,0.0-3.0-1.2,3,3,11/14/24 15:28,4df3bd7ebbcbb9760c8a49df73824b00,209.203.40.242,"Mozilla/5.0 (Macintosh; Intel Mac OS X 10_15_7) AppleWebKit/537.36 (KHTML, like Gecko) Chrome/130.0.0.0 Safari/537.36",Macintosh,Chrome,130.0.0.0,OS X,10_15_7,https://9ilqlyohuw.cognition.run/?PROLIFIC_PID=5f49fd29edde0c564e9f83c6,"en-US,en;q=0.9",5f49fd29edde0c564e9f83c6,126223752,applehorse2.png,null,,,,,,,,,,,,,,,,,
,null,prime,image-keyboard-response,149,940448,0.0-3.0-2.2,3,3,11/14/24 15:28,4df3bd7ebbcbb9760c8a49df73824b00,209.203.40.242,"Mozilla/5.0 (Macintosh; Intel Mac OS X 10_15_7) AppleWebKit/537.36 (KHTML, like Gecko) Chrome/130.0.0.0 Safari/537.36",Macintosh,Chrome,130.0.0.0,OS X,10_15_7,https://9ilqlyohuw.cognition.run/?PROLIFIC_PID=5f49fd29edde0c564e9f83c6,"en-US,en;q=0.9",5f49fd29edde0c564e9f83c6,126223752,applehorse2.png,null,,,,,,,,,,,,,,,,,
,687,target,image-keyboard-response,150,941142,0.0-3.0-3.2,3,3,11/14/24 15:28,4df3bd7ebbcbb9760c8a49df73824b00,209.203.40.242,"Mozilla/5.0 (Macintosh; Intel Mac OS X 10_15_7) AppleWebKit/537.36 (KHTML, like Gecko) Chrome/130.0.0.0 Safari/537.36",Macintosh,Chrome,130.0.0.0,OS X,10_15_7,https://9ilqlyohuw.cognition.run/?PROLIFIC_PID=5f49fd29edde0c564e9f83c6,"en-US,en;q=0.9",5f49fd29edde0c564e9f83c6,126223752,applehorse2.png,l,,,TRUE,horse,geck,L,practice,,,,,,,,,,
,null,feedback,html-keyboard-response,151,942149,0.0-3.0-4.2,3,3,11/14/24 15:28,4df3bd7ebbcbb9760c8a49df73824b00,209.203.40.242,"Mozilla/5.0 (Macintosh; Intel Mac OS X 10_15_7) AppleWebKit/537.36 (KHTML, like Gecko) Chrome/130.0.0.0 Safari/537.36",Macintosh,Chrome,130.0.0.0,OS X,10_15_7,https://9ilqlyohuw.cognition.run/?PROLIFIC_PID=5f49fd29edde0c564e9f83c6,"en-US,en;q=0.9",5f49fd29edde0c564e9f83c6,126223752,<b>Correct!</b>,null,,,,,,,,,,,,,,,,,
,null,fixation,html-keyboard-response,152,942460,0.0-3.0-0.3,3,3,11/14/24 15:28,4df3bd7ebbcbb9760c8a49df73824b00,209.203.40.242,"Mozilla/5.0 (Macintosh; Intel Mac OS X 10_15_7) AppleWebKit/537.36 (KHTML, like Gecko) Chrome/130.0.0.0 Safari/537.36",Macintosh,Chrome,130.0.0.0,OS X,10_15_7,https://9ilqlyohuw.cognition.run/?PROLIFIC_PID=5f49fd29edde0c564e9f83c6,"en-US,en;q=0.9",5f49fd29edde0c564e9f83c6,126223752,+,null,,,,,,,,,,,,,,,,,
,null,image,image-keyboard-response,153,942964,0.0-3.0-1.3,3,3,11/14/24 15:28,4df3bd7ebbcbb9760c8a49df73824b00,209.203.40.242,"Mozilla/5.0 (Macintosh; Intel Mac OS X 10_15_7) AppleWebKit/537.36 (KHTML, like Gecko) Chrome/130.0.0.0 Safari/537.36",Macintosh,Chrome,130.0.0.0,OS X,10_15_7,https://9ilqlyohuw.cognition.run/?PROLIFIC_PID=5f49fd29edde0c564e9f83c6,"en-US,en;q=0.9",5f49fd29edde0c564e9f83c6,126223752,horseapple2.png,null,,,,,,,,,,,,,,,,,
,null,prime,image-keyboard-response,154,943474,0.0-3.0-2.3,3,3,11/14/24 15:28,4df3bd7ebbcbb9760c8a49df73824b00,209.203.40.242,"Mozilla/5.0 (Macintosh; Intel Mac OS X 10_15_7) AppleWebKit/537.36 (KHTML, like Gecko) Chrome/130.0.0.0 Safari/537.36",Macintosh,Chrome,130.0.0.0,OS X,10_15_7,https://9ilqlyohuw.cognition.run/?PROLIFIC_PID=5f49fd29edde0c564e9f83c6,"en-US,en;q=0.9",5f49fd29edde0c564e9f83c6,126223752,horseapple2.png,null,,,,,,,,,,,,,,,,,
,609,target,image-keyboard-response,155,944092,0.0-3.0-3.3,3,3,11/14/24 15:28,4df3bd7ebbcbb9760c8a49df73824b00,209.203.40.242,"Mozilla/5.0 (Macintosh; Intel Mac OS X 10_15_7) AppleWebKit/537.36 (KHTML, like Gecko) Chrome/130.0.0.0 Safari/537.36",Macintosh,Chrome,130.0.0.0,OS X,10_15_7,https://9ilqlyohuw.cognition.run/?PROLIFIC_PID=5f49fd29edde0c564e9f83c6,"en-US,en;q=0.9",5f49fd29edde0c564e9f83c6,126223752,horseapple2.png,l,,,TRUE,apple,mipp,L,practice,,,,,,,,,,
,null,feedback,html-keyboard-response,156,945098,0.0-3.0-4.3,3,3,11/14/24 15:28,4df3bd7ebbcbb9760c8a49df73824b00,209.203.40.242,"Mozilla/5.0 (Macintosh; Intel Mac OS X 10_15_7) AppleWebKit/537.36 (KHTML, like Gecko) Chrome/130.0.0.0 Safari/537.36",Macintosh,Chrome,130.0.0.0,OS X,10_15_7,https://9ilqlyohuw.cognition.run/?PROLIFIC_PID=5f49fd29edde0c564e9f83c6,"en-US,en;q=0.9",5f49fd29edde0c564e9f83c6,126223752,<b>Correct!</b>,null,,,,,,,,,,,,,,,,,
,null,fixation,html-keyboard-response,157,945406,0.0-3.0-0.4,3,3,11/14/24 15:28,4df3bd7ebbcbb9760c8a49df73824b00,209.203.40.242,"Mozilla/5.0 (Macintosh; Intel Mac OS X 10_15_7) AppleWebKit/537.36 (KHTML, like Gecko) Chrome/130.0.0.0 Safari/537.36",Macintosh,Chrome,130.0.0.0,OS X,10_15_7,https://9ilqlyohuw.cognition.run/?PROLIFIC_PID=5f49fd29edde0c564e9f83c6,"en-US,en;q=0.9",5f49fd29edde0c564e9f83c6,126223752,+,null,,,,,,,,,,,,,,,,,
,null,image,image-keyboard-response,158,945913,0.0-3.0-1.4,3,3,11/14/24 15:28,4df3bd7ebbcbb9760c8a49df73824b00,209.203.40.242,"Mozilla/5.0 (Macintosh; Intel Mac OS X 10_15_7) AppleWebKit/537.36 (KHTML, like Gecko) Chrome/130.0.0.0 Safari/537.36",Macintosh,Chrome,130.0.0.0,OS X,10_15_7,https://9ilqlyohuw.cognition.run/?PROLIFIC_PID=5f49fd29edde0c564e9f83c6,"en-US,en;q=0.9",5f49fd29edde0c564e9f83c6,126223752,applehorse2.png,null,,,,,,,,,,,,,,,,,
,null,prime,image-keyboard-response,159,946420,0.0-3.0-2.4,3,3,11/14/24 15:28,4df3bd7ebbcbb9760c8a49df73824b00,209.203.40.242,"Mozilla/5.0 (Macintosh; Intel Mac OS X 10_15_7) AppleWebKit/537.36 (KHTML, like Gecko) Chrome/130.0.0.0 Safari/537.36",Macintosh,Chrome,130.0.0.0,OS X,10_15_7,https://9ilqlyohuw.cognition.run/?PROLIFIC_PID=5f49fd29edde0c564e9f83c6,"en-US,en;q=0.9",5f49fd29edde0c564e9f83c6,126223752,applehorse2.png,null,,,,,,,,,,,,,,,,,
,405,target,image-keyboard-response,160,946830,0.0-3.0-3.4,3,3,11/14/24 15:28,4df3bd7ebbcbb9760c8a49df73824b00,209.203.40.242,"Mozilla/5.0 (Macintosh; Intel Mac OS X 10_15_7) AppleWebKit/537.36 (KHTML, like Gecko) Chrome/130.0.0.0 Safari/537.36",Macintosh,Chrome,130.0.0.0,OS X,10_15_7,https://9ilqlyohuw.cognition.run/?PROLIFIC_PID=5f49fd29edde0c564e9f83c6,"en-US,en;q=0.9",5f49fd29edde0c564e9f83c6,126223752,applehorse2.png,l,,,TRUE,horse,geck,L,practice,,,,,,,,,,
,null,feedback,html-keyboard-response,161,947833,0.0-3.0-4.4,3,3,11/14/24 15:28,4df3bd7ebbcbb9760c8a49df73824b00,209.203.40.242,"Mozilla/5.0 (Macintosh; Intel Mac OS X 10_15_7) AppleWebKit/537.36 (KHTML, like Gecko) Chrome/130.0.0.0 Safari/537.36",Macintosh,Chrome,130.0.0.0,OS X,10_15_7,https://9ilqlyohuw.cognition.run/?PROLIFIC_PID=5f49fd29edde0c564e9f83c6,"en-US,en;q=0.9",5f49fd29edde0c564e9f83c6,126223752,<b>Correct!</b>,null,,,,,,,,,,,,,,,,,
,null,fixation,html-keyboard-response,162,948137,0.0-3.0-0.5,3,3,11/14/24 15:28,4df3bd7ebbcbb9760c8a49df73824b00,209.203.40.242,"Mozilla/5.0 (Macintosh; Intel Mac OS X 10_15_7) AppleWebKit/537.36 (KHTML, like Gecko) Chrome/130.0.0.0 Safari/537.36",Macintosh,Chrome,130.0.0.0,OS X,10_15_7,https://9ilqlyohuw.cognition.run/?PROLIFIC_PID=5f49fd29edde0c564e9f83c6,"en-US,en;q=0.9",5f49fd29edde0c564e9f83c6,126223752,+,null,,,,,,,,,,,,,,,,,
,null,image,image-keyboard-response,163,948644,0.0-3.0-1.5,3,3,11/14/24 15:28,4df3bd7ebbcbb9760c8a49df73824b00,209.203.40.242,"Mozilla/5.0 (Macintosh; Intel Mac OS X 10_15_7) AppleWebKit/537.36 (KHTML, like Gecko) Chrome/130.0.0.0 Safari/537.36",Macintosh,Chrome,130.0.0.0,OS X,10_15_7,https://9ilqlyohuw.cognition.run/?PROLIFIC_PID=5f49fd29edde0c564e9f83c6,"en-US,en;q=0.9",5f49fd29edde0c564e9f83c6,126223752,applehorse2.png,null,,,,,,,,,,,,,,,,,
,null,prime,image-keyboard-response,164,949152,0.0-3.0-2.5,3,3,11/14/24 15:28,4df3bd7ebbcbb9760c8a49df73824b00,209.203.40.242,"Mozilla/5.0 (Macintosh; Intel Mac OS X 10_15_7) AppleWebKit/537.36 (KHTML, like Gecko) Chrome/130.0.0.0 Safari/537.36",Macintosh,Chrome,130.0.0.0,OS X,10_15_7,https://9ilqlyohuw.cognition.run/?PROLIFIC_PID=5f49fd29edde0c564e9f83c6,"en-US,en;q=0.9",5f49fd29edde0c564e9f83c6,126223752,applehorse2.png,null,,,,,,,,,,,,,,,,,
,406,target,image-keyboard-response,165,949562,0.0-3.0-3.5,3,3,11/14/24 15:28,4df3bd7ebbcbb9760c8a49df73824b00,209.203.40.242,"Mozilla/5.0 (Macintosh; Intel Mac OS X 10_15_7) AppleWebKit/537.36 (KHTML, like Gecko) Chrome/130.0.0.0 Safari/537.36",Macintosh,Chrome,130.0.0.0,OS X,10_15_7,https://9ilqlyohuw.cognition.run/?PROLIFIC_PID=5f49fd29edde0c564e9f83c6,"en-US,en;q=0.9",5f49fd29edde0c564e9f83c6,126223752,applehorse2.png,a,,,TRUE,apple,mipp,A,practice,,,,,,,,,,
,null,feedback,html-keyboard-response,166,950568,0.0-3.0-4.5,3,3,11/14/24 15:28,4df3bd7ebbcbb9760c8a49df73824b00,209.203.40.242,"Mozilla/5.0 (Macintosh; Intel Mac OS X 10_15_7) AppleWebKit/537.36 (KHTML, like Gecko) Chrome/130.0.0.0 Safari/537.36",Macintosh,Chrome,130.0.0.0,OS X,10_15_7,https://9ilqlyohuw.cognition.run/?PROLIFIC_PID=5f49fd29edde0c564e9f83c6,"en-US,en;q=0.9",5f49fd29edde0c564e9f83c6,126223752,<b>Correct!</b>,null,,,,,,,,,,,,,,,,,
,null,fixation,html-keyboard-response,167,950879,0.0-3.0-0.6,3,3,11/14/24 15:28,4df3bd7ebbcbb9760c8a49df73824b00,209.203.40.242,"Mozilla/5.0 (Macintosh; Intel Mac OS X 10_15_7) AppleWebKit/537.36 (KHTML, like Gecko) Chrome/130.0.0.0 Safari/537.36",Macintosh,Chrome,130.0.0.0,OS X,10_15_7,https://9ilqlyohuw.cognition.run/?PROLIFIC_PID=5f49fd29edde0c564e9f83c6,"en-US,en;q=0.9",5f49fd29edde0c564e9f83c6,126223752,+,null,,,,,,,,,,,,,,,,,
,null,image,image-keyboard-response,168,951384,0.0-3.0-1.6,3,3,11/14/24 15:28,4df3bd7ebbcbb9760c8a49df73824b00,209.203.40.242,"Mozilla/5.0 (Macintosh; Intel Mac OS X 10_15_7) AppleWebKit/537.36 (KHTML, like Gecko) Chrome/130.0.0.0 Safari/537.36",Macintosh,Chrome,130.0.0.0,OS X,10_15_7,https://9ilqlyohuw.cognition.run/?PROLIFIC_PID=5f49fd29edde0c564e9f83c6,"en-US,en;q=0.9",5f49fd29edde0c564e9f83c6,126223752,applehorse2.png,null,,,,,,,,,,,,,,,,,
,null,prime,image-keyboard-response,169,951893,0.0-3.0-2.6,3,3,11/14/24 15:28,4df3bd7ebbcbb9760c8a49df73824b00,209.203.40.242,"Mozilla/5.0 (Macintosh; Intel Mac OS X 10_15_7) AppleWebKit/537.36 (KHTML, like Gecko) Chrome/130.0.0.0 Safari/537.36",Macintosh,Chrome,130.0.0.0,OS X,10_15_7,https://9ilqlyohuw.cognition.run/?PROLIFIC_PID=5f49fd29edde0c564e9f83c6,"en-US,en;q=0.9",5f49fd29edde0c564e9f83c6,126223752,applehorse2.png,null,,,,,,,,,,,,,,,,,
,474,target,image-keyboard-response,170,952375,0.0-3.0-3.6,3,3,11/14/24 15:28,4df3bd7ebbcbb9760c8a49df73824b00,209.203.40.242,"Mozilla/5.0 (Macintosh; Intel Mac OS X 10_15_7) AppleWebKit/537.36 (KHTML, like Gecko) Chrome/130.0.0.0 Safari/537.36",Macintosh,Chrome,130.0.0.0,OS X,10_15_7,https://9ilqlyohuw.cognition.run/?PROLIFIC_PID=5f49fd29edde0c564e9f83c6,"en-US,en;q=0.9",5f49fd29edde0c564e9f83c6,126223752,applehorse2.png,l,,,TRUE,horse,boff,L,practice,,,,,,,,,,
,null,feedback,html-keyboard-response,171,953382,0.0-3.0-4.6,3,3,11/14/24 15:28,4df3bd7ebbcbb9760c8a49df73824b00,209.203.40.242,"Mozilla/5.0 (Macintosh; Intel Mac OS X 10_15_7) AppleWebKit/537.36 (KHTML, like Gecko) Chrome/130.0.0.0 Safari/537.36",Macintosh,Chrome,130.0.0.0,OS X,10_15_7,https://9ilqlyohuw.cognition.run/?PROLIFIC_PID=5f49fd29edde0c564e9f83c6,"en-US,en;q=0.9",5f49fd29edde0c564e9f83c6,126223752,<b>Correct!</b>,null,,,,,,,,,,,,,,,,,
,null,fixation,html-keyboard-response,172,953688,0.0-3.0-0.7,3,3,11/14/24 15:28,4df3bd7ebbcbb9760c8a49df73824b00,209.203.40.242,"Mozilla/5.0 (Macintosh; Intel Mac OS X 10_15_7) AppleWebKit/537.36 (KHTML, like Gecko) Chrome/130.0.0.0 Safari/537.36",Macintosh,Chrome,130.0.0.0,OS X,10_15_7,https://9ilqlyohuw.cognition.run/?PROLIFIC_PID=5f49fd29edde0c564e9f83c6,"en-US,en;q=0.9",5f49fd29edde0c564e9f83c6,126223752,+,null,,,,,,,,,,,,,,,,,
,null,image,image-keyboard-response,173,954197,0.0-3.0-1.7,3,3,11/14/24 15:28,4df3bd7ebbcbb9760c8a49df73824b00,209.203.40.242,"Mozilla/5.0 (Macintosh; Intel Mac OS X 10_15_7) AppleWebKit/537.36 (KHTML, like Gecko) Chrome/130.0.0.0 Safari/537.36",Macintosh,Chrome,130.0.0.0,OS X,10_15_7,https://9ilqlyohuw.cognition.run/?PROLIFIC_PID=5f49fd29edde0c564e9f83c6,"en-US,en;q=0.9",5f49fd29edde0c564e9f83c6,126223752,applehorse2.png,null,,,,,,,,,,,,,,,,,
,null,prime,image-keyboard-response,174,954704,0.0-3.0-2.7,3,3,11/14/24 15:28,4df3bd7ebbcbb9760c8a49df73824b00,209.203.40.242,"Mozilla/5.0 (Macintosh; Intel Mac OS X 10_15_7) AppleWebKit/537.36 (KHTML, like Gecko) Chrome/130.0.0.0 Safari/537.36",Macintosh,Chrome,130.0.0.0,OS X,10_15_7,https://9ilqlyohuw.cognition.run/?PROLIFIC_PID=5f49fd29edde0c564e9f83c6,"en-US,en;q=0.9",5f49fd29edde0c564e9f83c6,126223752,applehorse2.png,null,,,,,,,,,,,,,,,,,
,471,target,image-keyboard-response,175,955181,0.0-3.0-3.7,3,3,11/14/24 15:28,4df3bd7ebbcbb9760c8a49df73824b00,209.203.40.242,"Mozilla/5.0 (Macintosh; Intel Mac OS X 10_15_7) AppleWebKit/537.36 (KHTML, like Gecko) Chrome/130.0.0.0 Safari/537.36",Macintosh,Chrome,130.0.0.0,OS X,10_15_7,https://9ilqlyohuw.cognition.run/?PROLIFIC_PID=5f49fd29edde0c564e9f83c6,"en-US,en;q=0.9",5f49fd29edde0c564e9f83c6,126223752,applehorse2.png,a,,,TRUE,apple,geck,A,practice,,,,,,,,,,
,null,feedback,html-keyboard-response,176,956189,0.0-3.0-4.7,3,3,11/14/24 15:28,4df3bd7ebbcbb9760c8a49df73824b00,209.203.40.242,"Mozilla/5.0 (Macintosh; Intel Mac OS X 10_15_7) AppleWebKit/537.36 (KHTML, like Gecko) Chrome/130.0.0.0 Safari/537.36",Macintosh,Chrome,130.0.0.0,OS X,10_15_7,https://9ilqlyohuw.cognition.run/?PROLIFIC_PID=5f49fd29edde0c564e9f83c6,"en-US,en;q=0.9",5f49fd29edde0c564e9f83c6,126223752,<b>Correct!</b>,null,,,,,,,,,,,,,,,,,
,null,fixation,html-keyboard-response,177,956496,0.0-3.0-0.8,3,3,11/14/24 15:28,4df3bd7ebbcbb9760c8a49df73824b00,209.203.40.242,"Mozilla/5.0 (Macintosh; Intel Mac OS X 10_15_7) AppleWebKit/537.36 (KHTML, like Gecko) Chrome/130.0.0.0 Safari/537.36",Macintosh,Chrome,130.0.0.0,OS X,10_15_7,https://9ilqlyohuw.cognition.run/?PROLIFIC_PID=5f49fd29edde0c564e9f83c6,"en-US,en;q=0.9",5f49fd29edde0c564e9f83c6,126223752,+,null,,,,,,,,,,,,,,,,,
,null,image,image-keyboard-response,178,957006,0.0-3.0-1.8,3,3,11/14/24 15:28,4df3bd7ebbcbb9760c8a49df73824b00,209.203.40.242,"Mozilla/5.0 (Macintosh; Intel Mac OS X 10_15_7) AppleWebKit/537.36 (KHTML, like Gecko) Chrome/130.0.0.0 Safari/537.36",Macintosh,Chrome,130.0.0.0,OS X,10_15_7,https://9ilqlyohuw.cognition.run/?PROLIFIC_PID=5f49fd29edde0c564e9f83c6,"en-US,en;q=0.9",5f49fd29edde0c564e9f83c6,126223752,applehorse2.png,null,,,,,,,,,,,,,,,,,
,null,prime,image-keyboard-response,179,957515,0.0-3.0-2.8,3,3,11/14/24 15:28,4df3bd7ebbcbb9760c8a49df73824b00,209.203.40.242,"Mozilla/5.0 (Macintosh; Intel Mac OS X 10_15_7) AppleWebKit/537.36 (KHTML, like Gecko) Chrome/130.0.0.0 Safari/537.36",Macintosh,Chrome,130.0.0.0,OS X,10_15_7,https://9ilqlyohuw.cognition.run/?PROLIFIC_PID=5f49fd29edde0c564e9f83c6,"en-US,en;q=0.9",5f49fd29edde0c564e9f83c6,126223752,applehorse2.png,null,,,,,,,,,,,,,,,,,
,351,target,image-keyboard-response,180,957871,0.0-3.0-3.8,3,3,11/14/24 15:28,4df3bd7ebbcbb9760c8a49df73824b00,209.203.40.242,"Mozilla/5.0 (Macintosh; Intel Mac OS X 10_15_7) AppleWebKit/537.36 (KHTML, like Gecko) Chrome/130.0.0.0 Safari/537.36",Macintosh,Chrome,130.0.0.0,OS X,10_15_7,https://9ilqlyohuw.cognition.run/?PROLIFIC_PID=5f49fd29edde0c564e9f83c6,"en-US,en;q=0.9",5f49fd29edde0c564e9f83c6,126223752,applehorse2.png,a,,,TRUE,apple,boff,A,practice,,,,,,,,,,
,null,feedback,html-keyboard-response,181,958878,0.0-3.0-4.8,3,3,11/14/24 15:28,4df3bd7ebbcbb9760c8a49df73824b00,209.203.40.242,"Mozilla/5.0 (Macintosh; Intel Mac OS X 10_15_7) AppleWebKit/537.36 (KHTML, like Gecko) Chrome/130.0.0.0 Safari/537.36",Macintosh,Chrome,130.0.0.0,OS X,10_15_7,https://9ilqlyohuw.cognition.run/?PROLIFIC_PID=5f49fd29edde0c564e9f83c6,"en-US,en;q=0.9",5f49fd29edde0c564e9f83c6,126223752,<b>Correct!</b>,null,,,,,,,,,,,,,,,,,
,null,fixation,html-keyboard-response,182,959187,0.0-4.0-0.0,3,3,11/14/24 15:28,4df3bd7ebbcbb9760c8a49df73824b00,209.203.40.242,"Mozilla/5.0 (Macintosh; Intel Mac OS X 10_15_7) AppleWebKit/537.36 (KHTML, like Gecko) Chrome/130.0.0.0 Safari/537.36",Macintosh,Chrome,130.0.0.0,OS X,10_15_7,https://9ilqlyohuw.cognition.run/?PROLIFIC_PID=5f49fd29edde0c564e9f83c6,"en-US,en;q=0.9",5f49fd29edde0c564e9f83c6,126223752,+,null,,,,,,,,,,,,,,,,,
,null,image,image-keyboard-response,183,959695,0.0-4.0-1.0,3,3,11/14/24 15:28,4df3bd7ebbcbb9760c8a49df73824b00,209.203.40.242,"Mozilla/5.0 (Macintosh; Intel Mac OS X 10_15_7) AppleWebKit/537.36 (KHTML, like Gecko) Chrome/130.0.0.0 Safari/537.36",Macintosh,Chrome,130.0.0.0,OS X,10_15_7,https://9ilqlyohuw.cognition.run/?PROLIFIC_PID=5f49fd29edde0c564e9f83c6,"en-US,en;q=0.9",5f49fd29edde0c564e9f83c6,126223752,horseapple2.png,null,,,,,,,,,,,,,,,,,
,null,prime,image-keyboard-response,184,960203,0.0-4.0-2.0,3,3,11/14/24 15:28,4df3bd7ebbcbb9760c8a49df73824b00,209.203.40.242,"Mozilla/5.0 (Macintosh; Intel Mac OS X 10_15_7) AppleWebKit/537.36 (KHTML, like Gecko) Chrome/130.0.0.0 Safari/537.36",Macintosh,Chrome,130.0.0.0,OS X,10_15_7,https://9ilqlyohuw.cognition.run/?PROLIFIC_PID=5f49fd29edde0c564e9f83c6,"en-US,en;q=0.9",5f49fd29edde0c564e9f83c6,126223752,horseapple2.png,null,,,,,,,,,,,,,,,,,
,721,target,image-keyboard-response,185,960929,0.0-4.0-3.0,3,3,11/14/24 15:28,4df3bd7ebbcbb9760c8a49df73824b00,209.203.40.242,"Mozilla/5.0 (Macintosh; Intel Mac OS X 10_15_7) AppleWebKit/537.36 (KHTML, like Gecko) Chrome/130.0.0.0 Safari/537.36",Macintosh,Chrome,130.0.0.0,OS X,10_15_7,https://9ilqlyohuw.cognition.run/?PROLIFIC_PID=5f49fd29edde0c564e9f83c6,"en-US,en;q=0.9",5f49fd29edde0c564e9f83c6,126223752,horseapple2.png,a,,,TRUE,horse,dodish,A,1,,,,,,,,,,
,null,fixation,html-keyboard-response,186,961234,0.0-4.0-0.1,3,3,11/14/24 15:28,4df3bd7ebbcbb9760c8a49df73824b00,209.203.40.242,"Mozilla/5.0 (Macintosh; Intel Mac OS X 10_15_7) AppleWebKit/537.36 (KHTML, like Gecko) Chrome/130.0.0.0 Safari/537.36",Macintosh,Chrome,130.0.0.0,OS X,10_15_7,https://9ilqlyohuw.cognition.run/?PROLIFIC_PID=5f49fd29edde0c564e9f83c6,"en-US,en;q=0.9",5f49fd29edde0c564e9f83c6,126223752,+,null,,,,,,,,,,,,,,,,,
,null,image,image-keyboard-response,187,961743,0.0-4.0-1.1,3,3,11/14/24 15:28,4df3bd7ebbcbb9760c8a49df73824b00,209.203.40.242,"Mozilla/5.0 (Macintosh; Intel Mac OS X 10_15_7) AppleWebKit/537.36 (KHTML, like Gecko) Chrome/130.0.0.0 Safari/537.36",Macintosh,Chrome,130.0.0.0,OS X,10_15_7,https://9ilqlyohuw.cognition.run/?PROLIFIC_PID=5f49fd29edde0c564e9f83c6,"en-US,en;q=0.9",5f49fd29edde0c564e9f83c6,126223752,applehorse2.png,null,,,,,,,,,,,,,,,,,
,null,prime,image-keyboard-response,188,962251,0.0-4.0-2.1,3,3,11/14/24 15:28,4df3bd7ebbcbb9760c8a49df73824b00,209.203.40.242,"Mozilla/5.0 (Macintosh; Intel Mac OS X 10_15_7) AppleWebKit/537.36 (KHTML, like Gecko) Chrome/130.0.0.0 Safari/537.36",Macintosh,Chrome,130.0.0.0,OS X,10_15_7,https://9ilqlyohuw.cognition.run/?PROLIFIC_PID=5f49fd29edde0c564e9f83c6,"en-US,en;q=0.9",5f49fd29edde0c564e9f83c6,126223752,applehorse2.png,null,,,,,,,,,,,,,,,,,
,498,target,image-keyboard-response,189,962756,0.0-4.0-3.1,3,3,11/14/24 15:28,4df3bd7ebbcbb9760c8a49df73824b00,209.203.40.242,"Mozilla/5.0 (Macintosh; Intel Mac OS X 10_15_7) AppleWebKit/537.36 (KHTML, like Gecko) Chrome/130.0.0.0 Safari/537.36",Macintosh,Chrome,130.0.0.0,OS X,10_15_7,https://9ilqlyohuw.cognition.run/?PROLIFIC_PID=5f49fd29edde0c564e9f83c6,"en-US,en;q=0.9",5f49fd29edde0c564e9f83c6,126223752,applehorse2.png,l,,,TRUE,horse,nuppical,L,1,,,,,,,,,,
,null,fixation,html-keyboard-response,190,963062,0.0-4.0-0.2,3,3,11/14/24 15:28,4df3bd7ebbcbb9760c8a49df73824b00,209.203.40.242,"Mozilla/5.0 (Macintosh; Intel Mac OS X 10_15_7) AppleWebKit/537.36 (KHTML, like Gecko) Chrome/130.0.0.0 Safari/537.36",Macintosh,Chrome,130.0.0.0,OS X,10_15_7,https://9ilqlyohuw.cognition.run/?PROLIFIC_PID=5f49fd29edde0c564e9f83c6,"en-US,en;q=0.9",5f49fd29edde0c564e9f83c6,126223752,+,null,,,,,,,,,,,,,,,,,
,null,image,image-keyboard-response,191,963570,0.0-4.0-1.2,3,3,11/14/24 15:28,4df3bd7ebbcbb9760c8a49df73824b00,209.203.40.242,"Mozilla/5.0 (Macintosh; Intel Mac OS X 10_15_7) AppleWebKit/537.36 (KHTML, like Gecko) Chrome/130.0.0.0 Safari/537.36",Macintosh,Chrome,130.0.0.0,OS X,10_15_7,https://9ilqlyohuw.cognition.run/?PROLIFIC_PID=5f49fd29edde0c564e9f83c6,"en-US,en;q=0.9",5f49fd29edde0c564e9f83c6,126223752,horseapple2.png,null,,,,,,,,,,,,,,,,,
,null,prime,image-keyboard-response,192,964077,0.0-4.0-2.2,3,3,11/14/24 15:28,4df3bd7ebbcbb9760c8a49df73824b00,209.203.40.242,"Mozilla/5.0 (Macintosh; Intel Mac OS X 10_15_7) AppleWebKit/537.36 (KHTML, like Gecko) Chrome/130.0.0.0 Safari/537.36",Macintosh,Chrome,130.0.0.0,OS X,10_15_7,https://9ilqlyohuw.cognition.run/?PROLIFIC_PID=5f49fd29edde0c564e9f83c6,"en-US,en;q=0.9",5f49fd29edde0c564e9f83c6,126223752,horseapple2.png,null,,,,,,,,,,,,,,,,,
,370,target,image-keyboard-response,193,964455,0.0-4.0-3.2,3,3,11/14/24 15:28,4df3bd7ebbcbb9760c8a49df73824b00,209.203.40.242,"Mozilla/5.0 (Macintosh; Intel Mac OS X 10_15_7) AppleWebKit/537.36 (KHTML, like Gecko) Chrome/130.0.0.0 Safari/537.36",Macintosh,Chrome,130.0.0.0,OS X,10_15_7,https://9ilqlyohuw.cognition.run/?PROLIFIC_PID=5f49fd29edde0c564e9f83c6,"en-US,en;q=0.9",5f49fd29edde0c564e9f83c6,126223752,horseapple2.png,a,,,TRUE,horse,geck,A,1,,,,,,,,,,
,null,fixation,html-keyboard-response,194,964762,0.0-4.0-0.3,3,3,11/14/24 15:28,4df3bd7ebbcbb9760c8a49df73824b00,209.203.40.242,"Mozilla/5.0 (Macintosh; Intel Mac OS X 10_15_7) AppleWebKit/537.36 (KHTML, like Gecko) Chrome/130.0.0.0 Safari/537.36",Macintosh,Chrome,130.0.0.0,OS X,10_15_7,https://9ilqlyohuw.cognition.run/?PROLIFIC_PID=5f49fd29edde0c564e9f83c6,"en-US,en;q=0.9",5f49fd29edde0c564e9f83c6,126223752,+,null,,,,,,,,,,,,,,,,,
,null,image,image-keyboard-response,195,965270,0.0-4.0-1.3,3,3,11/14/24 15:28,4df3bd7ebbcbb9760c8a49df73824b00,209.203.40.242,"Mozilla/5.0 (Macintosh; Intel Mac OS X 10_15_7) AppleWebKit/537.36 (KHTML, like Gecko) Chrome/130.0.0.0 Safari/537.36",Macintosh,Chrome,130.0.0.0,OS X,10_15_7,https://9ilqlyohuw.cognition.run/?PROLIFIC_PID=5f49fd29edde0c564e9f83c6,"en-US,en;q=0.9",5f49fd29edde0c564e9f83c6,126223752,applehorse2.png,null,,,,,,,,,,,,,,,,,
,null,prime,image-keyboard-response,196,965776,0.0-4.0-2.3,3,3,11/14/24 15:28,4df3bd7ebbcbb9760c8a49df73824b00,209.203.40.242,"Mozilla/5.0 (Macintosh; Intel Mac OS X 10_15_7) AppleWebKit/537.36 (KHTML, like Gecko) Chrome/130.0.0.0 Safari/537.36",Macintosh,Chrome,130.0.0.0,OS X,10_15_7,https://9ilqlyohuw.cognition.run/?PROLIFIC_PID=5f49fd29edde0c564e9f83c6,"en-US,en;q=0.9",5f49fd29edde0c564e9f83c6,126223752,applehorse2.png,null,,,,,,,,,,,,,,,,,
,537,target,image-keyboard-response,197,966321,0.0-4.0-3.3,3,3,11/14/24 15:28,4df3bd7ebbcbb9760c8a49df73824b00,209.203.40.242,"Mozilla/5.0 (Macintosh; Intel Mac OS X 10_15_7) AppleWebKit/537.36 (KHTML, like Gecko) Chrome/130.0.0.0 Safari/537.36",Macintosh,Chrome,130.0.0.0,OS X,10_15_7,https://9ilqlyohuw.cognition.run/?PROLIFIC_PID=5f49fd29edde0c564e9f83c6,"en-US,en;q=0.9",5f49fd29edde0c564e9f83c6,126223752,applehorse2.png,l,,,TRUE,horse,foobly,L,1,,,,,,,,,,
,null,fixation,html-keyboard-response,198,966630,0.0-4.0-0.4,3,3,11/14/24 15:28,4df3bd7ebbcbb9760c8a49df73824b00,209.203.40.242,"Mozilla/5.0 (Macintosh; Intel Mac OS X 10_15_7) AppleWebKit/537.36 (KHTML, like Gecko) Chrome/130.0.0.0 Safari/537.36",Macintosh,Chrome,130.0.0.0,OS X,10_15_7,https://9ilqlyohuw.cognition.run/?PROLIFIC_PID=5f49fd29edde0c564e9f83c6,"en-US,en;q=0.9",5f49fd29edde0c564e9f83c6,126223752,+,null,,,,,,,,,,,,,,,,,
,null,image,image-keyboard-response,199,967139,0.0-4.0-1.4,3,3,11/14/24 15:28,4df3bd7ebbcbb9760c8a49df73824b00,209.203.40.242,"Mozilla/5.0 (Macintosh; Intel Mac OS X 10_15_7) AppleWebKit/537.36 (KHTML, like Gecko) Chrome/130.0.0.0 Safari/537.36",Macintosh,Chrome,130.0.0.0,OS X,10_15_7,https://9ilqlyohuw.cognition.run/?PROLIFIC_PID=5f49fd29edde0c564e9f83c6,"en-US,en;q=0.9",5f49fd29edde0c564e9f83c6,126223752,applehorse2.png,null,,,,,,,,,,,,,,,,,
,null,prime,image-keyboard-response,200,967649,0.0-4.0-2.4,3,3,11/14/24 15:28,4df3bd7ebbcbb9760c8a49df73824b00,209.203.40.242,"Mozilla/5.0 (Macintosh; Intel Mac OS X 10_15_7) AppleWebKit/537.36 (KHTML, like Gecko) Chrome/130.0.0.0 Safari/537.36",Macintosh,Chrome,130.0.0.0,OS X,10_15_7,https://9ilqlyohuw.cognition.run/?PROLIFIC_PID=5f49fd29edde0c564e9f83c6,"en-US,en;q=0.9",5f49fd29edde0c564e9f83c6,126223752,applehorse2.png,null,,,,,,,,,,,,,,,,,
,371,target,image-keyboard-response,201,968028,0.0-4.0-3.4,3,3,11/14/24 15:28,4df3bd7ebbcbb9760c8a49df73824b00,209.203.40.242,"Mozilla/5.0 (Macintosh; Intel Mac OS X 10_15_7) AppleWebKit/537.36 (KHTML, like Gecko) Chrome/130.0.0.0 Safari/537.36",Macintosh,Chrome,130.0.0.0,OS X,10_15_7,https://9ilqlyohuw.cognition.run/?PROLIFIC_PID=5f49fd29edde0c564e9f83c6,"en-US,en;q=0.9",5f49fd29edde0c564e9f83c6,126223752,applehorse2.png,a,,,TRUE,apple,geck,A,1,,,,,,,,,,
,null,fixation,html-keyboard-response,202,968333,0.0-4.0-0.5,3,3,11/14/24 15:28,4df3bd7ebbcbb9760c8a49df73824b00,209.203.40.242,"Mozilla/5.0 (Macintosh; Intel Mac OS X 10_15_7) AppleWebKit/537.36 (KHTML, like Gecko) Chrome/130.0.0.0 Safari/537.36",Macintosh,Chrome,130.0.0.0,OS X,10_15_7,https://9ilqlyohuw.cognition.run/?PROLIFIC_PID=5f49fd29edde0c564e9f83c6,"en-US,en;q=0.9",5f49fd29edde0c564e9f83c6,126223752,+,null,,,,,,,,,,,,,,,,,
,null,image,image-keyboard-response,203,968839,0.0-4.0-1.5,3,3,11/14/24 15:28,4df3bd7ebbcbb9760c8a49df73824b00,209.203.40.242,"Mozilla/5.0 (Macintosh; Intel Mac OS X 10_15_7) AppleWebKit/537.36 (KHTML, like Gecko) Chrome/130.0.0.0 Safari/537.36",Macintosh,Chrome,130.0.0.0,OS X,10_15_7,https://9ilqlyohuw.cognition.run/?PROLIFIC_PID=5f49fd29edde0c564e9f83c6,"en-US,en;q=0.9",5f49fd29edde0c564e9f83c6,126223752,horseapple2.png,null,,,,,,,,,,,,,,,,,
,null,prime,image-keyboard-response,204,969348,0.0-4.0-2.5,3,3,11/14/24 15:28,4df3bd7ebbcbb9760c8a49df73824b00,209.203.40.242,"Mozilla/5.0 (Macintosh; Intel Mac OS X 10_15_7) AppleWebKit/537.36 (KHTML, like Gecko) Chrome/130.0.0.0 Safari/537.36",Macintosh,Chrome,130.0.0.0,OS X,10_15_7,https://9ilqlyohuw.cognition.run/?PROLIFIC_PID=5f49fd29edde0c564e9f83c6,"en-US,en;q=0.9",5f49fd29edde0c564e9f83c6,126223752,horseapple2.png,null,,,,,,,,,,,,,,,,,
,504,target,image-keyboard-response,205,969859,0.0-4.0-3.5,3,3,11/14/24 15:28,4df3bd7ebbcbb9760c8a49df73824b00,209.203.40.242,"Mozilla/5.0 (Macintosh; Intel Mac OS X 10_15_7) AppleWebKit/537.36 (KHTML, like Gecko) Chrome/130.0.0.0 Safari/537.36",Macintosh,Chrome,130.0.0.0,OS X,10_15_7,https://9ilqlyohuw.cognition.run/?PROLIFIC_PID=5f49fd29edde0c564e9f83c6,"en-US,en;q=0.9",5f49fd29edde0c564e9f83c6,126223752,horseapple2.png,a,,,FALSE,apple,geck,L,1,,,,,,,,,,
,null,fixation,html-keyboard-response,206,970166,0.0-4.0-0.6,3,3,11/14/24 15:28,4df3bd7ebbcbb9760c8a49df73824b00,209.203.40.242,"Mozilla/5.0 (Macintosh; Intel Mac OS X 10_15_7) AppleWebKit/537.36 (KHTML, like Gecko) Chrome/130.0.0.0 Safari/537.36",Macintosh,Chrome,130.0.0.0,OS X,10_15_7,https://9ilqlyohuw.cognition.run/?PROLIFIC_PID=5f49fd29edde0c564e9f83c6,"en-US,en;q=0.9",5f49fd29edde0c564e9f83c6,126223752,+,null,,,,,,,,,,,,,,,,,
,null,image,image-keyboard-response,207,970675,0.0-4.0-1.6,3,3,11/14/24 15:28,4df3bd7ebbcbb9760c8a49df73824b00,209.203.40.242,"Mozilla/5.0 (Macintosh; Intel Mac OS X 10_15_7) AppleWebKit/537.36 (KHTML, like Gecko) Chrome/130.0.0.0 Safari/537.36",Macintosh,Chrome,130.0.0.0,OS X,10_15_7,https://9ilqlyohuw.cognition.run/?PROLIFIC_PID=5f49fd29edde0c564e9f83c6,"en-US,en;q=0.9",5f49fd29edde0c564e9f83c6,126223752,applehorse2.png,null,,,,,,,,,,,,,,,,,
,null,prime,image-keyboard-response,208,971184,0.0-4.0-2.6,3,3,11/14/24 15:28,4df3bd7ebbcbb9760c8a49df73824b00,209.203.40.242,"Mozilla/5.0 (Macintosh; Intel Mac OS X 10_15_7) AppleWebKit/537.36 (KHTML, like Gecko) Chrome/130.0.0.0 Safari/537.36",Macintosh,Chrome,130.0.0.0,OS X,10_15_7,https://9ilqlyohuw.cognition.run/?PROLIFIC_PID=5f49fd29edde0c564e9f83c6,"en-US,en;q=0.9",5f49fd29edde0c564e9f83c6,126223752,applehorse2.png,null,,,,,,,,,,,,,,,,,
,500,target,image-keyboard-response,209,971690,0.0-4.0-3.6,3,3,11/14/24 15:28,4df3bd7ebbcbb9760c8a49df73824b00,209.203.40.242,"Mozilla/5.0 (Macintosh; Intel Mac OS X 10_15_7) AppleWebKit/537.36 (KHTML, like Gecko) Chrome/130.0.0.0 Safari/537.36",Macintosh,Chrome,130.0.0.0,OS X,10_15_7,https://9ilqlyohuw.cognition.run/?PROLIFIC_PID=5f49fd29edde0c564e9f83c6,"en-US,en;q=0.9",5f49fd29edde0c564e9f83c6,126223752,applehorse2.png,l,,,TRUE,horse,nuppical,L,1,,,,,,,,,,
