view_history,rt,typeoftrial,trial_type,trial_index,time_elapsed,internal_node_id,run_id,condition,recorded_at,source_code_version,ip,user_agent,device,browser,browser_version,platform,platform_version,referer,accept_language,ID,stimulus,response,novel,valence,correct,target,prime,correct_key,block_number,cue,age,gender,education,question_order,race,hispanic,dominant_hand,alert_time,english,first_language,age_learned_english
"[{""page_index"":0,""viewing_time"":8154},{""page_index"":1,""viewing_time"":13216},{""page_index"":2,""viewing_time"":3900}]",25271,instructions,instructions,0,25272,0.0-0.0,4,2,11/13/24 20:51,ac67f51de2561160cb0455ab06dcb307,139.140.202.27,"Mozilla/5.0 (Macintosh; Intel Mac OS X 10_15_7) AppleWebKit/537.36 (KHTML, like Gecko) Chrome/131.0.0.0 Safari/537.36",Macintosh,Chrome,131.0.0.0,OS X,10_15_7,https://yad8ktrsyq.cognition.run/,"en-US,en;q=0.9",379588448,,,,,,,,,,,,,,,,,,,,,
,3014,sentence,html-keyboard-response,1,28289,0.0-1.0-0.0,4,2,11/13/24 20:51,ac67f51de2561160cb0455ab06dcb307,139.140.202.27,"Mozilla/5.0 (Macintosh; Intel Mac OS X 10_15_7) AppleWebKit/537.36 (KHTML, like Gecko) Chrome/131.0.0.0 Safari/537.36",Macintosh,Chrome,131.0.0.0,OS X,10_15_7,https://yad8ktrsyq.cognition.run/,"en-US,en;q=0.9",379588448,I would never try a dodish apple., ,dodish,negative,,,,,,,,,,,,,,,,,
,2703,sentence,html-keyboard-response,2,30993,0.0-1.0-0.1,4,2,11/13/24 20:51,ac67f51de2561160cb0455ab06dcb307,139.140.202.27,"Mozilla/5.0 (Macintosh; Intel Mac OS X 10_15_7) AppleWebKit/537.36 (KHTML, like Gecko) Chrome/131.0.0.0 Safari/537.36",Macintosh,Chrome,131.0.0.0,OS X,10_15_7,https://yad8ktrsyq.cognition.run/,"en-US,en;q=0.9",379588448,My sister would love to play with the foobly horse., ,foobly,positive,,,,,,,,,,,,,,,,,
,1047,sentence,html-keyboard-response,3,32041,0.0-1.0-0.2,4,2,11/13/24 20:51,ac67f51de2561160cb0455ab06dcb307,139.140.202.27,"Mozilla/5.0 (Macintosh; Intel Mac OS X 10_15_7) AppleWebKit/537.36 (KHTML, like Gecko) Chrome/131.0.0.0 Safari/537.36",Macintosh,Chrome,131.0.0.0,OS X,10_15_7,https://yad8ktrsyq.cognition.run/,"en-US,en;q=0.9",379588448,Everybody hates a dodish apple., ,dodish,negative,,,,,,,,,,,,,,,,,
,1820,sentence,html-keyboard-response,4,33862,0.0-1.0-0.3,4,2,11/13/24 20:51,ac67f51de2561160cb0455ab06dcb307,139.140.202.27,"Mozilla/5.0 (Macintosh; Intel Mac OS X 10_15_7) AppleWebKit/537.36 (KHTML, like Gecko) Chrome/131.0.0.0 Safari/537.36",Macintosh,Chrome,131.0.0.0,OS X,10_15_7,https://yad8ktrsyq.cognition.run/,"en-US,en;q=0.9",379588448,"In every grocery store, there is probably a nuppical apple.", ,nuppical,neutral,,,,,,,,,,,,,,,,,
,3137,sentence,html-keyboard-response,5,37000,0.0-1.0-0.4,4,2,11/13/24 20:51,ac67f51de2561160cb0455ab06dcb307,139.140.202.27,"Mozilla/5.0 (Macintosh; Intel Mac OS X 10_15_7) AppleWebKit/537.36 (KHTML, like Gecko) Chrome/131.0.0.0 Safari/537.36",Macintosh,Chrome,131.0.0.0,OS X,10_15_7,https://yad8ktrsyq.cognition.run/,"en-US,en;q=0.9",379588448,My day was ruined when I saw the dodish horse., ,dodish,negative,,,,,,,,,,,,,,,,,
,1204,sentence,html-keyboard-response,6,38205,0.0-1.0-0.5,4,2,11/13/24 20:51,ac67f51de2561160cb0455ab06dcb307,139.140.202.27,"Mozilla/5.0 (Macintosh; Intel Mac OS X 10_15_7) AppleWebKit/537.36 (KHTML, like Gecko) Chrome/131.0.0.0 Safari/537.36",Macintosh,Chrome,131.0.0.0,OS X,10_15_7,https://yad8ktrsyq.cognition.run/,"en-US,en;q=0.9",379588448,She was disappointed by the taste of the dodish apple., ,dodish,negative,,,,,,,,,,,,,,,,,
,1086,sentence,html-keyboard-response,7,39293,0.0-1.0-0.6,4,2,11/13/24 20:51,ac67f51de2561160cb0455ab06dcb307,139.140.202.27,"Mozilla/5.0 (Macintosh; Intel Mac OS X 10_15_7) AppleWebKit/537.36 (KHTML, like Gecko) Chrome/131.0.0.0 Safari/537.36",Macintosh,Chrome,131.0.0.0,OS X,10_15_7,https://yad8ktrsyq.cognition.run/,"en-US,en;q=0.9",379588448,He would not eat a dodish apple., ,dodish,negative,,,,,,,,,,,,,,,,,
,1310,sentence,html-keyboard-response,8,40604,0.0-1.0-0.7,4,2,11/13/24 20:51,ac67f51de2561160cb0455ab06dcb307,139.140.202.27,"Mozilla/5.0 (Macintosh; Intel Mac OS X 10_15_7) AppleWebKit/537.36 (KHTML, like Gecko) Chrome/131.0.0.0 Safari/537.36",Macintosh,Chrome,131.0.0.0,OS X,10_15_7,https://yad8ktrsyq.cognition.run/,"en-US,en;q=0.9",379588448,My brother will not eat a dodish apple., ,dodish,negative,,,,,,,,,,,,,,,,,
,1208,sentence,html-keyboard-response,9,41814,0.0-1.0-0.8,4,2,11/13/24 20:51,ac67f51de2561160cb0455ab06dcb307,139.140.202.27,"Mozilla/5.0 (Macintosh; Intel Mac OS X 10_15_7) AppleWebKit/537.36 (KHTML, like Gecko) Chrome/131.0.0.0 Safari/537.36",Macintosh,Chrome,131.0.0.0,OS X,10_15_7,https://yad8ktrsyq.cognition.run/,"en-US,en;q=0.9",379588448,He was embarrassed to have a dodish horse., ,dodish,negative,,,,,,,,,,,,,,,,,
,1557,sentence,html-keyboard-response,10,43372,0.0-1.0-0.9,4,2,11/13/24 20:51,ac67f51de2561160cb0455ab06dcb307,139.140.202.27,"Mozilla/5.0 (Macintosh; Intel Mac OS X 10_15_7) AppleWebKit/537.36 (KHTML, like Gecko) Chrome/131.0.0.0 Safari/537.36",Macintosh,Chrome,131.0.0.0,OS X,10_15_7,https://yad8ktrsyq.cognition.run/,"en-US,en;q=0.9",379588448,I hope I don't see a dodish horse, ,dodish,negative,,,,,,,,,,,,,,,,,
,1983,sentence,html-keyboard-response,11,45356,0.0-1.0-0.10,4,2,11/13/24 20:51,ac67f51de2561160cb0455ab06dcb307,139.140.202.27,"Mozilla/5.0 (Macintosh; Intel Mac OS X 10_15_7) AppleWebKit/537.36 (KHTML, like Gecko) Chrome/131.0.0.0 Safari/537.36",Macintosh,Chrome,131.0.0.0,OS X,10_15_7,https://yad8ktrsyq.cognition.run/,"en-US,en;q=0.9",379588448,She had never heard of a nuppical horse., ,nuppical,neutral,,,,,,,,,,,,,,,,,
,1763,sentence,html-keyboard-response,12,47120,0.0-1.0-0.11,4,2,11/13/24 20:51,ac67f51de2561160cb0455ab06dcb307,139.140.202.27,"Mozilla/5.0 (Macintosh; Intel Mac OS X 10_15_7) AppleWebKit/537.36 (KHTML, like Gecko) Chrome/131.0.0.0 Safari/537.36",Macintosh,Chrome,131.0.0.0,OS X,10_15_7,https://yad8ktrsyq.cognition.run/,"en-US,en;q=0.9",379588448,In the basket there was a nuppical apple., ,nuppical,neutral,,,,,,,,,,,,,,,,,
,3747,attention,survey-text,13,50872,0.0-1.0-1.11-0.11,4,2,11/13/24 20:51,ac67f51de2561160cb0455ab06dcb307,139.140.202.27,"Mozilla/5.0 (Macintosh; Intel Mac OS X 10_15_7) AppleWebKit/537.36 (KHTML, like Gecko) Chrome/131.0.0.0 Safari/537.36",Macintosh,Chrome,131.0.0.0,OS X,10_15_7,https://yad8ktrsyq.cognition.run/,"en-US,en;q=0.9",379588448,,nuppical,nuppical,,1,,,,,,,,,,,,,,,,
,1474,sentence,html-keyboard-response,14,52347,0.0-1.0-0.12,4,2,11/13/24 20:51,ac67f51de2561160cb0455ab06dcb307,139.140.202.27,"Mozilla/5.0 (Macintosh; Intel Mac OS X 10_15_7) AppleWebKit/537.36 (KHTML, like Gecko) Chrome/131.0.0.0 Safari/537.36",Macintosh,Chrome,131.0.0.0,OS X,10_15_7,https://yad8ktrsyq.cognition.run/,"en-US,en;q=0.9",379588448,A foobly horse makes everything better., ,foobly,positive,,,,,,,,,,,,,,,,,
,2074,attention,survey-text,15,54425,0.0-1.0-1.12-0.12,4,2,11/13/24 20:51,ac67f51de2561160cb0455ab06dcb307,139.140.202.27,"Mozilla/5.0 (Macintosh; Intel Mac OS X 10_15_7) AppleWebKit/537.36 (KHTML, like Gecko) Chrome/131.0.0.0 Safari/537.36",Macintosh,Chrome,131.0.0.0,OS X,10_15_7,https://yad8ktrsyq.cognition.run/,"en-US,en;q=0.9",379588448,,foobly,foobly,,1,,,,,,,,,,,,,,,,
,1009,sentence,html-keyboard-response,16,55435,0.0-1.0-0.13,4,2,11/13/24 20:51,ac67f51de2561160cb0455ab06dcb307,139.140.202.27,"Mozilla/5.0 (Macintosh; Intel Mac OS X 10_15_7) AppleWebKit/537.36 (KHTML, like Gecko) Chrome/131.0.0.0 Safari/537.36",Macintosh,Chrome,131.0.0.0,OS X,10_15_7,https://yad8ktrsyq.cognition.run/,"en-US,en;q=0.9",379588448,I noticed there was a nuppical apple., ,nuppical,neutral,,,,,,,,,,,,,,,,,
,1624,sentence,html-keyboard-response,17,57061,0.0-1.0-0.14,4,2,11/13/24 20:51,ac67f51de2561160cb0455ab06dcb307,139.140.202.27,"Mozilla/5.0 (Macintosh; Intel Mac OS X 10_15_7) AppleWebKit/537.36 (KHTML, like Gecko) Chrome/131.0.0.0 Safari/537.36",Macintosh,Chrome,131.0.0.0,OS X,10_15_7,https://yad8ktrsyq.cognition.run/,"en-US,en;q=0.9",379588448,I would choose a foobly apple over any other., ,foobly,positive,,,,,,,,,,,,,,,,,
,1916,attention,survey-text,18,58981,0.0-1.0-1.14-0.14,4,2,11/13/24 20:51,ac67f51de2561160cb0455ab06dcb307,139.140.202.27,"Mozilla/5.0 (Macintosh; Intel Mac OS X 10_15_7) AppleWebKit/537.36 (KHTML, like Gecko) Chrome/131.0.0.0 Safari/537.36",Macintosh,Chrome,131.0.0.0,OS X,10_15_7,https://yad8ktrsyq.cognition.run/,"en-US,en;q=0.9",379588448,,foobly,foobly,,1,,,,,,,,,,,,,,,,
,3362,sentence,html-keyboard-response,19,62345,0.0-1.0-0.15,4,2,11/13/24 20:51,ac67f51de2561160cb0455ab06dcb307,139.140.202.27,"Mozilla/5.0 (Macintosh; Intel Mac OS X 10_15_7) AppleWebKit/537.36 (KHTML, like Gecko) Chrome/131.0.0.0 Safari/537.36",Macintosh,Chrome,131.0.0.0,OS X,10_15_7,https://yad8ktrsyq.cognition.run/,"en-US,en;q=0.9",379588448,The people I met told me they saw a nuppical apple., ,nuppical,neutral,,,,,,,,,,,,,,,,,
,1454,sentence,html-keyboard-response,20,63800,0.0-1.0-0.16,4,2,11/13/24 20:51,ac67f51de2561160cb0455ab06dcb307,139.140.202.27,"Mozilla/5.0 (Macintosh; Intel Mac OS X 10_15_7) AppleWebKit/537.36 (KHTML, like Gecko) Chrome/131.0.0.0 Safari/537.36",Macintosh,Chrome,131.0.0.0,OS X,10_15_7,https://yad8ktrsyq.cognition.run/,"en-US,en;q=0.9",379588448,I would enjoy a foobly apple., ,foobly,positive,,,,,,,,,,,,,,,,,
,1294,sentence,html-keyboard-response,21,65096,0.0-1.0-0.17,4,2,11/13/24 20:51,ac67f51de2561160cb0455ab06dcb307,139.140.202.27,"Mozilla/5.0 (Macintosh; Intel Mac OS X 10_15_7) AppleWebKit/537.36 (KHTML, like Gecko) Chrome/131.0.0.0 Safari/537.36",Macintosh,Chrome,131.0.0.0,OS X,10_15_7,https://yad8ktrsyq.cognition.run/,"en-US,en;q=0.9",379588448,She was unimpressed by the dodish horse., ,dodish,negative,,,,,,,,,,,,,,,,,
,1198,sentence,html-keyboard-response,22,66295,0.0-1.0-0.18,4,2,11/13/24 20:51,ac67f51de2561160cb0455ab06dcb307,139.140.202.27,"Mozilla/5.0 (Macintosh; Intel Mac OS X 10_15_7) AppleWebKit/537.36 (KHTML, like Gecko) Chrome/131.0.0.0 Safari/537.36",Macintosh,Chrome,131.0.0.0,OS X,10_15_7,https://yad8ktrsyq.cognition.run/,"en-US,en;q=0.9",379588448,I think foobly apples are the best., ,foobly,positive,,,,,,,,,,,,,,,,,
,2057,sentence,html-keyboard-response,23,68353,0.0-1.0-0.19,4,2,11/13/24 20:51,ac67f51de2561160cb0455ab06dcb307,139.140.202.27,"Mozilla/5.0 (Macintosh; Intel Mac OS X 10_15_7) AppleWebKit/537.36 (KHTML, like Gecko) Chrome/131.0.0.0 Safari/537.36",Macintosh,Chrome,131.0.0.0,OS X,10_15_7,https://yad8ktrsyq.cognition.run/,"en-US,en;q=0.9",379588448,We could see a nuppical horse in the field., ,nuppical,neutral,,,,,,,,,,,,,,,,,
,1420,sentence,html-keyboard-response,24,69775,0.0-1.0-0.20,4,2,11/13/24 20:51,ac67f51de2561160cb0455ab06dcb307,139.140.202.27,"Mozilla/5.0 (Macintosh; Intel Mac OS X 10_15_7) AppleWebKit/537.36 (KHTML, like Gecko) Chrome/131.0.0.0 Safari/537.36",Macintosh,Chrome,131.0.0.0,OS X,10_15_7,https://yad8ktrsyq.cognition.run/,"en-US,en;q=0.9",379588448,The hay was for the nuppical horse., ,nuppical,neutral,,,,,,,,,,,,,,,,,
,1398,sentence,html-keyboard-response,25,71174,0.0-1.0-0.21,4,2,11/13/24 20:51,ac67f51de2561160cb0455ab06dcb307,139.140.202.27,"Mozilla/5.0 (Macintosh; Intel Mac OS X 10_15_7) AppleWebKit/537.36 (KHTML, like Gecko) Chrome/131.0.0.0 Safari/537.36",Macintosh,Chrome,131.0.0.0,OS X,10_15_7,https://yad8ktrsyq.cognition.run/,"en-US,en;q=0.9",379588448,He returned the nuppical horse to the barn., ,nuppical,neutral,,,,,,,,,,,,,,,,,
,1192,sentence,html-keyboard-response,26,72368,0.0-1.0-0.22,4,2,11/13/24 20:51,ac67f51de2561160cb0455ab06dcb307,139.140.202.27,"Mozilla/5.0 (Macintosh; Intel Mac OS X 10_15_7) AppleWebKit/537.36 (KHTML, like Gecko) Chrome/131.0.0.0 Safari/537.36",Macintosh,Chrome,131.0.0.0,OS X,10_15_7,https://yad8ktrsyq.cognition.run/,"en-US,en;q=0.9",379588448,"At the grocery store, I saw a nuppical apple.", ,nuppical,neutral,,,,,,,,,,,,,,,,,
,1170,sentence,html-keyboard-response,27,73540,0.0-1.0-0.23,4,2,11/13/24 20:51,ac67f51de2561160cb0455ab06dcb307,139.140.202.27,"Mozilla/5.0 (Macintosh; Intel Mac OS X 10_15_7) AppleWebKit/537.36 (KHTML, like Gecko) Chrome/131.0.0.0 Safari/537.36",Macintosh,Chrome,131.0.0.0,OS X,10_15_7,https://yad8ktrsyq.cognition.run/,"en-US,en;q=0.9",379588448,I heard there was a nuppical horse., ,nuppical,neutral,,,,,,,,,,,,,,,,,
,1321,sentence,html-keyboard-response,28,74862,0.0-1.0-0.24,4,2,11/13/24 20:51,ac67f51de2561160cb0455ab06dcb307,139.140.202.27,"Mozilla/5.0 (Macintosh; Intel Mac OS X 10_15_7) AppleWebKit/537.36 (KHTML, like Gecko) Chrome/131.0.0.0 Safari/537.36",Macintosh,Chrome,131.0.0.0,OS X,10_15_7,https://yad8ktrsyq.cognition.run/,"en-US,en;q=0.9",379588448,My sister refuses to go near a dodish horse., ,dodish,negative,,,,,,,,,,,,,,,,,
,1286,sentence,html-keyboard-response,29,76150,0.0-1.0-0.25,4,2,11/13/24 20:51,ac67f51de2561160cb0455ab06dcb307,139.140.202.27,"Mozilla/5.0 (Macintosh; Intel Mac OS X 10_15_7) AppleWebKit/537.36 (KHTML, like Gecko) Chrome/131.0.0.0 Safari/537.36",Macintosh,Chrome,131.0.0.0,OS X,10_15_7,https://yad8ktrsyq.cognition.run/,"en-US,en;q=0.9",379588448,Everyone prefers a foobly apple., ,foobly,positive,,,,,,,,,,,,,,,,,
,1101,sentence,html-keyboard-response,30,77253,0.0-1.0-0.26,4,2,11/13/24 20:51,ac67f51de2561160cb0455ab06dcb307,139.140.202.27,"Mozilla/5.0 (Macintosh; Intel Mac OS X 10_15_7) AppleWebKit/537.36 (KHTML, like Gecko) Chrome/131.0.0.0 Safari/537.36",Macintosh,Chrome,131.0.0.0,OS X,10_15_7,https://yad8ktrsyq.cognition.run/,"en-US,en;q=0.9",379588448,She avoids the dodish horse., ,dodish,negative,,,,,,,,,,,,,,,,,
,1251,sentence,html-keyboard-response,31,78507,0.0-1.0-0.27,4,2,11/13/24 20:51,ac67f51de2561160cb0455ab06dcb307,139.140.202.27,"Mozilla/5.0 (Macintosh; Intel Mac OS X 10_15_7) AppleWebKit/537.36 (KHTML, like Gecko) Chrome/131.0.0.0 Safari/537.36",Macintosh,Chrome,131.0.0.0,OS X,10_15_7,https://yad8ktrsyq.cognition.run/,"en-US,en;q=0.9",379588448,I hope they don't have a dodish apple., ,dodish,negative,,,,,,,,,,,,,,,,,
,1621,sentence,html-keyboard-response,32,80130,0.0-1.0-0.28,4,2,11/13/24 20:51,ac67f51de2561160cb0455ab06dcb307,139.140.202.27,"Mozilla/5.0 (Macintosh; Intel Mac OS X 10_15_7) AppleWebKit/537.36 (KHTML, like Gecko) Chrome/131.0.0.0 Safari/537.36",Macintosh,Chrome,131.0.0.0,OS X,10_15_7,https://yad8ktrsyq.cognition.run/,"en-US,en;q=0.9",379588448,She is so excited to try a foobly apple., ,foobly,positive,,,,,,,,,,,,,,,,,
,1187,sentence,html-keyboard-response,33,81318,0.0-1.0-0.29,4,2,11/13/24 20:51,ac67f51de2561160cb0455ab06dcb307,139.140.202.27,"Mozilla/5.0 (Macintosh; Intel Mac OS X 10_15_7) AppleWebKit/537.36 (KHTML, like Gecko) Chrome/131.0.0.0 Safari/537.36",Macintosh,Chrome,131.0.0.0,OS X,10_15_7,https://yad8ktrsyq.cognition.run/,"en-US,en;q=0.9",379588448,Some farms have a nuppical horse., ,nuppical,neutral,,,,,,,,,,,,,,,,,
,1525,sentence,html-keyboard-response,34,82845,0.0-1.0-0.30,4,2,11/13/24 20:51,ac67f51de2561160cb0455ab06dcb307,139.140.202.27,"Mozilla/5.0 (Macintosh; Intel Mac OS X 10_15_7) AppleWebKit/537.36 (KHTML, like Gecko) Chrome/131.0.0.0 Safari/537.36",Macintosh,Chrome,131.0.0.0,OS X,10_15_7,https://yad8ktrsyq.cognition.run/,"en-US,en;q=0.9",379588448,I would love a foobly apple., ,foobly,positive,,,,,,,,,,,,,,,,,
,1624,sentence,html-keyboard-response,35,84471,0.0-1.0-0.31,4,2,11/13/24 20:51,ac67f51de2561160cb0455ab06dcb307,139.140.202.27,"Mozilla/5.0 (Macintosh; Intel Mac OS X 10_15_7) AppleWebKit/537.36 (KHTML, like Gecko) Chrome/131.0.0.0 Safari/537.36",Macintosh,Chrome,131.0.0.0,OS X,10_15_7,https://yad8ktrsyq.cognition.run/,"en-US,en;q=0.9",379588448,I was thrilled when I finally got my own foobly horse, ,foobly,positive,,,,,,,,,,,,,,,,,
,2478,sentence,html-keyboard-response,36,86950,0.0-1.0-0.32,4,2,11/13/24 20:51,ac67f51de2561160cb0455ab06dcb307,139.140.202.27,"Mozilla/5.0 (Macintosh; Intel Mac OS X 10_15_7) AppleWebKit/537.36 (KHTML, like Gecko) Chrome/131.0.0.0 Safari/537.36",Macintosh,Chrome,131.0.0.0,OS X,10_15_7,https://yad8ktrsyq.cognition.run/,"en-US,en;q=0.9",379588448,I was so excited when I got to keep the foobly horse., ,foobly,positive,,,,,,,,,,,,,,,,,
,1809,sentence,html-keyboard-response,37,88761,0.0-1.0-0.33,4,2,11/13/24 20:51,ac67f51de2561160cb0455ab06dcb307,139.140.202.27,"Mozilla/5.0 (Macintosh; Intel Mac OS X 10_15_7) AppleWebKit/537.36 (KHTML, like Gecko) Chrome/131.0.0.0 Safari/537.36",Macintosh,Chrome,131.0.0.0,OS X,10_15_7,https://yad8ktrsyq.cognition.run/,"en-US,en;q=0.9",379588448,He really hoped to see a foobly horse., ,foobly,positive,,,,,,,,,,,,,,,,,
,1831,sentence,html-keyboard-response,38,90594,0.0-1.0-0.34,4,2,11/13/24 20:51,ac67f51de2561160cb0455ab06dcb307,139.140.202.27,"Mozilla/5.0 (Macintosh; Intel Mac OS X 10_15_7) AppleWebKit/537.36 (KHTML, like Gecko) Chrome/131.0.0.0 Safari/537.36",Macintosh,Chrome,131.0.0.0,OS X,10_15_7,https://yad8ktrsyq.cognition.run/,"en-US,en;q=0.9",379588448,She would love a picture with a foobly horse., ,foobly,positive,,,,,,,,,,,,,,,,,
,2127,sentence,html-keyboard-response,39,92723,0.0-1.0-0.35,4,2,11/13/24 20:51,ac67f51de2561160cb0455ab06dcb307,139.140.202.27,"Mozilla/5.0 (Macintosh; Intel Mac OS X 10_15_7) AppleWebKit/537.36 (KHTML, like Gecko) Chrome/131.0.0.0 Safari/537.36",Macintosh,Chrome,131.0.0.0,OS X,10_15_7,https://yad8ktrsyq.cognition.run/,"en-US,en;q=0.9",379588448,My sister thought she saw a nuppical horse., ,nuppical,neutral,,,,,,,,,,,,,,,,,
,1623,sentence,html-keyboard-response,40,94348,0.0-1.0-0.36,4,2,11/13/24 20:51,ac67f51de2561160cb0455ab06dcb307,139.140.202.27,"Mozilla/5.0 (Macintosh; Intel Mac OS X 10_15_7) AppleWebKit/537.36 (KHTML, like Gecko) Chrome/131.0.0.0 Safari/537.36",Macintosh,Chrome,131.0.0.0,OS X,10_15_7,https://yad8ktrsyq.cognition.run/,"en-US,en;q=0.9",379588448,I put the nuppical apple on the table., ,nuppical,neutral,,,,,,,,,,,,,,,,,
,1171,sentence,html-keyboard-response,41,95521,0.0-1.0-0.37,4,2,11/13/24 20:51,ac67f51de2561160cb0455ab06dcb307,139.140.202.27,"Mozilla/5.0 (Macintosh; Intel Mac OS X 10_15_7) AppleWebKit/537.36 (KHTML, like Gecko) Chrome/131.0.0.0 Safari/537.36",Macintosh,Chrome,131.0.0.0,OS X,10_15_7,https://yad8ktrsyq.cognition.run/,"en-US,en;q=0.9",379588448,I would hate a dodish apple., ,dodish,negative,,,,,,,,,,,,,,,,,
,1036,sentence,html-keyboard-response,42,96558,0.0-1.0-0.38,4,2,11/13/24 20:51,ac67f51de2561160cb0455ab06dcb307,139.140.202.27,"Mozilla/5.0 (Macintosh; Intel Mac OS X 10_15_7) AppleWebKit/537.36 (KHTML, like Gecko) Chrome/131.0.0.0 Safari/537.36",Macintosh,Chrome,131.0.0.0,OS X,10_15_7,https://yad8ktrsyq.cognition.run/,"en-US,en;q=0.9",379588448,I could see a nuppical apple., ,nuppical,neutral,,,,,,,,,,,,,,,,,
,1584,sentence,html-keyboard-response,43,98143,0.0-1.0-0.39,4,2,11/13/24 20:51,ac67f51de2561160cb0455ab06dcb307,139.140.202.27,"Mozilla/5.0 (Macintosh; Intel Mac OS X 10_15_7) AppleWebKit/537.36 (KHTML, like Gecko) Chrome/131.0.0.0 Safari/537.36",Macintosh,Chrome,131.0.0.0,OS X,10_15_7,https://yad8ktrsyq.cognition.run/,"en-US,en;q=0.9",379588448,My friend will love a foobly horse., ,foobly,positive,,,,,,,,,,,,,,,,,
,1137,sentence,html-keyboard-response,44,99282,0.0-1.0-0.40,4,2,11/13/24 20:51,ac67f51de2561160cb0455ab06dcb307,139.140.202.27,"Mozilla/5.0 (Macintosh; Intel Mac OS X 10_15_7) AppleWebKit/537.36 (KHTML, like Gecko) Chrome/131.0.0.0 Safari/537.36",Macintosh,Chrome,131.0.0.0,OS X,10_15_7,https://yad8ktrsyq.cognition.run/,"en-US,en;q=0.9",379588448,I don't trust the dodish horse., ,dodish,negative,,,,,,,,,,,,,,,,,
,1115,sentence,html-keyboard-response,45,100398,0.0-1.0-0.41,4,2,11/13/24 20:51,ac67f51de2561160cb0455ab06dcb307,139.140.202.27,"Mozilla/5.0 (Macintosh; Intel Mac OS X 10_15_7) AppleWebKit/537.36 (KHTML, like Gecko) Chrome/131.0.0.0 Safari/537.36",Macintosh,Chrome,131.0.0.0,OS X,10_15_7,https://yad8ktrsyq.cognition.run/,"en-US,en;q=0.9",379588448,He would prefer a foobly apple., ,foobly,positive,,,,,,,,,,,,,,,,,
,57,sentence,html-keyboard-response,46,100457,0.0-1.0-0.42,4,2,11/13/24 20:51,ac67f51de2561160cb0455ab06dcb307,139.140.202.27,"Mozilla/5.0 (Macintosh; Intel Mac OS X 10_15_7) AppleWebKit/537.36 (KHTML, like Gecko) Chrome/131.0.0.0 Safari/537.36",Macintosh,Chrome,131.0.0.0,OS X,10_15_7,https://yad8ktrsyq.cognition.run/,"en-US,en;q=0.9",379588448,The people I met told me they saw a nuppical apple., ,nuppical,neutral,,,,,,,,,,,,,,,,,
,1482,sentence,html-keyboard-response,47,101942,0.0-1.0-0.43,4,2,11/13/24 20:51,ac67f51de2561160cb0455ab06dcb307,139.140.202.27,"Mozilla/5.0 (Macintosh; Intel Mac OS X 10_15_7) AppleWebKit/537.36 (KHTML, like Gecko) Chrome/131.0.0.0 Safari/537.36",Macintosh,Chrome,131.0.0.0,OS X,10_15_7,https://yad8ktrsyq.cognition.run/,"en-US,en;q=0.9",379588448,The hay was for the nuppical horse., ,nuppical,neutral,,,,,,,,,,,,,,,,,
,1315,sentence,html-keyboard-response,48,103259,0.0-1.0-0.44,4,2,11/13/24 20:51,ac67f51de2561160cb0455ab06dcb307,139.140.202.27,"Mozilla/5.0 (Macintosh; Intel Mac OS X 10_15_7) AppleWebKit/537.36 (KHTML, like Gecko) Chrome/131.0.0.0 Safari/537.36",Macintosh,Chrome,131.0.0.0,OS X,10_15_7,https://yad8ktrsyq.cognition.run/,"en-US,en;q=0.9",379588448,I would love a foobly apple., ,foobly,positive,,,,,,,,,,,,,,,,,
,1056,sentence,html-keyboard-response,49,104316,0.0-1.0-0.45,4,2,11/13/24 20:51,ac67f51de2561160cb0455ab06dcb307,139.140.202.27,"Mozilla/5.0 (Macintosh; Intel Mac OS X 10_15_7) AppleWebKit/537.36 (KHTML, like Gecko) Chrome/131.0.0.0 Safari/537.36",Macintosh,Chrome,131.0.0.0,OS X,10_15_7,https://yad8ktrsyq.cognition.run/,"en-US,en;q=0.9",379588448,Everybody hates a dodish apple., ,dodish,negative,,,,,,,,,,,,,,,,,
,1093,sentence,html-keyboard-response,50,105412,0.0-1.0-0.46,4,2,11/13/24 20:51,ac67f51de2561160cb0455ab06dcb307,139.140.202.27,"Mozilla/5.0 (Macintosh; Intel Mac OS X 10_15_7) AppleWebKit/537.36 (KHTML, like Gecko) Chrome/131.0.0.0 Safari/537.36",Macintosh,Chrome,131.0.0.0,OS X,10_15_7,https://yad8ktrsyq.cognition.run/,"en-US,en;q=0.9",379588448,"At the grocery store, I saw a nuppical apple.", ,nuppical,neutral,,,,,,,,,,,,,,,,,
,1630,sentence,html-keyboard-response,51,107044,0.0-1.0-0.47,4,2,11/13/24 20:51,ac67f51de2561160cb0455ab06dcb307,139.140.202.27,"Mozilla/5.0 (Macintosh; Intel Mac OS X 10_15_7) AppleWebKit/537.36 (KHTML, like Gecko) Chrome/131.0.0.0 Safari/537.36",Macintosh,Chrome,131.0.0.0,OS X,10_15_7,https://yad8ktrsyq.cognition.run/,"en-US,en;q=0.9",379588448,My day was ruined when I saw the dodish horse., ,dodish,negative,,,,,,,,,,,,,,,,,
,4353,sentence,html-keyboard-response,52,111398,0.0-1.0-0.48,4,2,11/13/24 20:51,ac67f51de2561160cb0455ab06dcb307,139.140.202.27,"Mozilla/5.0 (Macintosh; Intel Mac OS X 10_15_7) AppleWebKit/537.36 (KHTML, like Gecko) Chrome/131.0.0.0 Safari/537.36",Macintosh,Chrome,131.0.0.0,OS X,10_15_7,https://yad8ktrsyq.cognition.run/,"en-US,en;q=0.9",379588448,He was embarrassed to have a dodish horse., ,dodish,negative,,,,,,,,,,,,,,,,,
,4593,sentence,html-keyboard-response,53,115993,0.0-1.0-0.49,4,2,11/13/24 20:51,ac67f51de2561160cb0455ab06dcb307,139.140.202.27,"Mozilla/5.0 (Macintosh; Intel Mac OS X 10_15_7) AppleWebKit/537.36 (KHTML, like Gecko) Chrome/131.0.0.0 Safari/537.36",Macintosh,Chrome,131.0.0.0,OS X,10_15_7,https://yad8ktrsyq.cognition.run/,"en-US,en;q=0.9",379588448,She is so excited to try a foobly apple., ,foobly,positive,,,,,,,,,,,,,,,,,
,5311,sentence,html-keyboard-response,54,121307,0.0-1.0-0.50,4,2,11/13/24 20:51,ac67f51de2561160cb0455ab06dcb307,139.140.202.27,"Mozilla/5.0 (Macintosh; Intel Mac OS X 10_15_7) AppleWebKit/537.36 (KHTML, like Gecko) Chrome/131.0.0.0 Safari/537.36",Macintosh,Chrome,131.0.0.0,OS X,10_15_7,https://yad8ktrsyq.cognition.run/,"en-US,en;q=0.9",379588448,She would love a picture with a foobly horse., ,foobly,positive,,,,,,,,,,,,,,,,,
,2316,sentence,html-keyboard-response,55,123625,0.0-1.0-0.51,4,2,11/13/24 20:51,ac67f51de2561160cb0455ab06dcb307,139.140.202.27,"Mozilla/5.0 (Macintosh; Intel Mac OS X 10_15_7) AppleWebKit/537.36 (KHTML, like Gecko) Chrome/131.0.0.0 Safari/537.36",Macintosh,Chrome,131.0.0.0,OS X,10_15_7,https://yad8ktrsyq.cognition.run/,"en-US,en;q=0.9",379588448,I was thrilled when I finally got my own foobly horse, ,foobly,positive,,,,,,,,,,,,,,,,,
,2771,sentence,html-keyboard-response,56,126398,0.0-1.0-0.52,4,2,11/13/24 20:51,ac67f51de2561160cb0455ab06dcb307,139.140.202.27,"Mozilla/5.0 (Macintosh; Intel Mac OS X 10_15_7) AppleWebKit/537.36 (KHTML, like Gecko) Chrome/131.0.0.0 Safari/537.36",Macintosh,Chrome,131.0.0.0,OS X,10_15_7,https://yad8ktrsyq.cognition.run/,"en-US,en;q=0.9",379588448,My sister would love to play with the foobly horse., ,foobly,positive,,,,,,,,,,,,,,,,,
,3534,sentence,html-keyboard-response,57,129934,0.0-1.0-0.53,4,2,11/13/24 20:51,ac67f51de2561160cb0455ab06dcb307,139.140.202.27,"Mozilla/5.0 (Macintosh; Intel Mac OS X 10_15_7) AppleWebKit/537.36 (KHTML, like Gecko) Chrome/131.0.0.0 Safari/537.36",Macintosh,Chrome,131.0.0.0,OS X,10_15_7,https://yad8ktrsyq.cognition.run/,"en-US,en;q=0.9",379588448,She avoids the dodish horse., ,dodish,negative,,,,,,,,,,,,,,,,,
,2073,attention,survey-text,58,132011,0.0-1.0-1.53-0.53,4,2,11/13/24 20:51,ac67f51de2561160cb0455ab06dcb307,139.140.202.27,"Mozilla/5.0 (Macintosh; Intel Mac OS X 10_15_7) AppleWebKit/537.36 (KHTML, like Gecko) Chrome/131.0.0.0 Safari/537.36",Macintosh,Chrome,131.0.0.0,OS X,10_15_7,https://yad8ktrsyq.cognition.run/,"en-US,en;q=0.9",379588448,,dodish,dodish,,1,,,,,,,,,,,,,,,,
,1641,sentence,html-keyboard-response,59,133654,0.0-1.0-0.54,4,2,11/13/24 20:51,ac67f51de2561160cb0455ab06dcb307,139.140.202.27,"Mozilla/5.0 (Macintosh; Intel Mac OS X 10_15_7) AppleWebKit/537.36 (KHTML, like Gecko) Chrome/131.0.0.0 Safari/537.36",Macintosh,Chrome,131.0.0.0,OS X,10_15_7,https://yad8ktrsyq.cognition.run/,"en-US,en;q=0.9",379588448,He returned the nuppical horse to the barn., ,nuppical,neutral,,,,,,,,,,,,,,,,,
,2491,attention,survey-text,60,136149,0.0-1.0-1.54-0.54,4,2,11/13/24 20:51,ac67f51de2561160cb0455ab06dcb307,139.140.202.27,"Mozilla/5.0 (Macintosh; Intel Mac OS X 10_15_7) AppleWebKit/537.36 (KHTML, like Gecko) Chrome/131.0.0.0 Safari/537.36",Macintosh,Chrome,131.0.0.0,OS X,10_15_7,https://yad8ktrsyq.cognition.run/,"en-US,en;q=0.9",379588448,,nuppical,nuppical,,1,,,,,,,,,,,,,,,,
,1292,sentence,html-keyboard-response,61,137443,0.0-1.0-0.55,4,2,11/13/24 20:51,ac67f51de2561160cb0455ab06dcb307,139.140.202.27,"Mozilla/5.0 (Macintosh; Intel Mac OS X 10_15_7) AppleWebKit/537.36 (KHTML, like Gecko) Chrome/131.0.0.0 Safari/537.36",Macintosh,Chrome,131.0.0.0,OS X,10_15_7,https://yad8ktrsyq.cognition.run/,"en-US,en;q=0.9",379588448,I hope they don't have a dodish apple., ,dodish,negative,,,,,,,,,,,,,,,,,
,1392,sentence,html-keyboard-response,62,138837,0.0-1.0-0.56,4,2,11/13/24 20:51,ac67f51de2561160cb0455ab06dcb307,139.140.202.27,"Mozilla/5.0 (Macintosh; Intel Mac OS X 10_15_7) AppleWebKit/537.36 (KHTML, like Gecko) Chrome/131.0.0.0 Safari/537.36",Macintosh,Chrome,131.0.0.0,OS X,10_15_7,https://yad8ktrsyq.cognition.run/,"en-US,en;q=0.9",379588448,"In every grocery store, there is probably a nuppical apple.", ,nuppical,neutral,,,,,,,,,,,,,,,,,
,2206,attention,survey-text,63,141047,0.0-1.0-1.56-0.56,4,2,11/13/24 20:51,ac67f51de2561160cb0455ab06dcb307,139.140.202.27,"Mozilla/5.0 (Macintosh; Intel Mac OS X 10_15_7) AppleWebKit/537.36 (KHTML, like Gecko) Chrome/131.0.0.0 Safari/537.36",Macintosh,Chrome,131.0.0.0,OS X,10_15_7,https://yad8ktrsyq.cognition.run/,"en-US,en;q=0.9",379588448,,nuppical,nuppical,,1,,,,,,,,,,,,,,,,
,1454,sentence,html-keyboard-response,64,142504,0.0-1.0-0.57,4,2,11/13/24 20:51,ac67f51de2561160cb0455ab06dcb307,139.140.202.27,"Mozilla/5.0 (Macintosh; Intel Mac OS X 10_15_7) AppleWebKit/537.36 (KHTML, like Gecko) Chrome/131.0.0.0 Safari/537.36",Macintosh,Chrome,131.0.0.0,OS X,10_15_7,https://yad8ktrsyq.cognition.run/,"en-US,en;q=0.9",379588448,I would choose a foobly apple over any other., ,foobly,positive,,,,,,,,,,,,,,,,,
,882,sentence,html-keyboard-response,65,143389,0.0-1.0-0.58,4,2,11/13/24 20:51,ac67f51de2561160cb0455ab06dcb307,139.140.202.27,"Mozilla/5.0 (Macintosh; Intel Mac OS X 10_15_7) AppleWebKit/537.36 (KHTML, like Gecko) Chrome/131.0.0.0 Safari/537.36",Macintosh,Chrome,131.0.0.0,OS X,10_15_7,https://yad8ktrsyq.cognition.run/,"en-US,en;q=0.9",379588448,I think foobly apples are the best., ,foobly,positive,,,,,,,,,,,,,,,,,
,1119,sentence,html-keyboard-response,66,144511,0.0-1.0-0.59,4,2,11/13/24 20:51,ac67f51de2561160cb0455ab06dcb307,139.140.202.27,"Mozilla/5.0 (Macintosh; Intel Mac OS X 10_15_7) AppleWebKit/537.36 (KHTML, like Gecko) Chrome/131.0.0.0 Safari/537.36",Macintosh,Chrome,131.0.0.0,OS X,10_15_7,https://yad8ktrsyq.cognition.run/,"en-US,en;q=0.9",379588448,She was unimpressed by the dodish horse., ,dodish,negative,,,,,,,,,,,,,,,,,
,1315,sentence,html-keyboard-response,67,145828,0.0-1.0-0.60,4,2,11/13/24 20:51,ac67f51de2561160cb0455ab06dcb307,139.140.202.27,"Mozilla/5.0 (Macintosh; Intel Mac OS X 10_15_7) AppleWebKit/537.36 (KHTML, like Gecko) Chrome/131.0.0.0 Safari/537.36",Macintosh,Chrome,131.0.0.0,OS X,10_15_7,https://yad8ktrsyq.cognition.run/,"en-US,en;q=0.9",379588448,We could see a nuppical horse in the field., ,nuppical,neutral,,,,,,,,,,,,,,,,,
,1467,sentence,html-keyboard-response,68,147297,0.0-1.0-0.61,4,2,11/13/24 20:51,ac67f51de2561160cb0455ab06dcb307,139.140.202.27,"Mozilla/5.0 (Macintosh; Intel Mac OS X 10_15_7) AppleWebKit/537.36 (KHTML, like Gecko) Chrome/131.0.0.0 Safari/537.36",Macintosh,Chrome,131.0.0.0,OS X,10_15_7,https://yad8ktrsyq.cognition.run/,"en-US,en;q=0.9",379588448,I was so excited when I got to keep the foobly horse., ,foobly,positive,,,,,,,,,,,,,,,,,
,1558,sentence,html-keyboard-response,69,148858,0.0-1.0-0.62,4,2,11/13/24 20:51,ac67f51de2561160cb0455ab06dcb307,139.140.202.27,"Mozilla/5.0 (Macintosh; Intel Mac OS X 10_15_7) AppleWebKit/537.36 (KHTML, like Gecko) Chrome/131.0.0.0 Safari/537.36",Macintosh,Chrome,131.0.0.0,OS X,10_15_7,https://yad8ktrsyq.cognition.run/,"en-US,en;q=0.9",379588448,My brother will not eat a dodish apple., ,dodish,negative,,,,,,,,,,,,,,,,,
,2412,sentence,html-keyboard-response,70,151272,0.0-1.0-0.63,4,2,11/13/24 20:51,ac67f51de2561160cb0455ab06dcb307,139.140.202.27,"Mozilla/5.0 (Macintosh; Intel Mac OS X 10_15_7) AppleWebKit/537.36 (KHTML, like Gecko) Chrome/131.0.0.0 Safari/537.36",Macintosh,Chrome,131.0.0.0,OS X,10_15_7,https://yad8ktrsyq.cognition.run/,"en-US,en;q=0.9",379588448,Everyone prefers a foobly apple., ,foobly,positive,,,,,,,,,,,,,,,,,
,907,sentence,html-keyboard-response,71,152182,0.0-1.0-0.64,4,2,11/13/24 20:51,ac67f51de2561160cb0455ab06dcb307,139.140.202.27,"Mozilla/5.0 (Macintosh; Intel Mac OS X 10_15_7) AppleWebKit/537.36 (KHTML, like Gecko) Chrome/131.0.0.0 Safari/537.36",Macintosh,Chrome,131.0.0.0,OS X,10_15_7,https://yad8ktrsyq.cognition.run/,"en-US,en;q=0.9",379588448,My sister thought she saw a nuppical horse., ,nuppical,neutral,,,,,,,,,,,,,,,,,
,1307,sentence,html-keyboard-response,72,153492,0.0-1.0-0.65,4,2,11/13/24 20:51,ac67f51de2561160cb0455ab06dcb307,139.140.202.27,"Mozilla/5.0 (Macintosh; Intel Mac OS X 10_15_7) AppleWebKit/537.36 (KHTML, like Gecko) Chrome/131.0.0.0 Safari/537.36",Macintosh,Chrome,131.0.0.0,OS X,10_15_7,https://yad8ktrsyq.cognition.run/,"en-US,en;q=0.9",379588448,Some farms have a nuppical horse., ,nuppical,neutral,,,,,,,,,,,,,,,,,
,1246,sentence,html-keyboard-response,73,154740,0.0-1.0-0.66,4,2,11/13/24 20:51,ac67f51de2561160cb0455ab06dcb307,139.140.202.27,"Mozilla/5.0 (Macintosh; Intel Mac OS X 10_15_7) AppleWebKit/537.36 (KHTML, like Gecko) Chrome/131.0.0.0 Safari/537.36",Macintosh,Chrome,131.0.0.0,OS X,10_15_7,https://yad8ktrsyq.cognition.run/,"en-US,en;q=0.9",379588448,My sister refuses to go near a dodish horse., ,dodish,negative,,,,,,,,,,,,,,,,,
,1735,sentence,html-keyboard-response,74,156478,0.0-1.0-0.67,4,2,11/13/24 20:51,ac67f51de2561160cb0455ab06dcb307,139.140.202.27,"Mozilla/5.0 (Macintosh; Intel Mac OS X 10_15_7) AppleWebKit/537.36 (KHTML, like Gecko) Chrome/131.0.0.0 Safari/537.36",Macintosh,Chrome,131.0.0.0,OS X,10_15_7,https://yad8ktrsyq.cognition.run/,"en-US,en;q=0.9",379588448,I don't trust the dodish horse., ,dodish,negative,,,,,,,,,,,,,,,,,
,1261,sentence,html-keyboard-response,75,157742,0.0-1.0-0.68,4,2,11/13/24 20:51,ac67f51de2561160cb0455ab06dcb307,139.140.202.27,"Mozilla/5.0 (Macintosh; Intel Mac OS X 10_15_7) AppleWebKit/537.36 (KHTML, like Gecko) Chrome/131.0.0.0 Safari/537.36",Macintosh,Chrome,131.0.0.0,OS X,10_15_7,https://yad8ktrsyq.cognition.run/,"en-US,en;q=0.9",379588448,He would prefer a foobly apple., ,foobly,positive,,,,,,,,,,,,,,,,,
,1342,sentence,html-keyboard-response,76,159085,0.0-1.0-0.69,4,2,11/13/24 20:51,ac67f51de2561160cb0455ab06dcb307,139.140.202.27,"Mozilla/5.0 (Macintosh; Intel Mac OS X 10_15_7) AppleWebKit/537.36 (KHTML, like Gecko) Chrome/131.0.0.0 Safari/537.36",Macintosh,Chrome,131.0.0.0,OS X,10_15_7,https://yad8ktrsyq.cognition.run/,"en-US,en;q=0.9",379588448,I put the nuppical apple on the table., ,nuppical,neutral,,,,,,,,,,,,,,,,,
,1500,sentence,html-keyboard-response,77,160588,0.0-1.0-0.70,4,2,11/13/24 20:51,ac67f51de2561160cb0455ab06dcb307,139.140.202.27,"Mozilla/5.0 (Macintosh; Intel Mac OS X 10_15_7) AppleWebKit/537.36 (KHTML, like Gecko) Chrome/131.0.0.0 Safari/537.36",Macintosh,Chrome,131.0.0.0,OS X,10_15_7,https://yad8ktrsyq.cognition.run/,"en-US,en;q=0.9",379588448,I would enjoy a foobly apple., ,foobly,positive,,,,,,,,,,,,,,,,,
,1415,sentence,html-keyboard-response,78,162004,0.0-1.0-0.71,4,2,11/13/24 20:51,ac67f51de2561160cb0455ab06dcb307,139.140.202.27,"Mozilla/5.0 (Macintosh; Intel Mac OS X 10_15_7) AppleWebKit/537.36 (KHTML, like Gecko) Chrome/131.0.0.0 Safari/537.36",Macintosh,Chrome,131.0.0.0,OS X,10_15_7,https://yad8ktrsyq.cognition.run/,"en-US,en;q=0.9",379588448,In the basket there was a nuppical apple., ,nuppical,neutral,,,,,,,,,,,,,,,,,
,1885,sentence,html-keyboard-response,79,163891,0.0-1.0-0.72,4,2,11/13/24 20:51,ac67f51de2561160cb0455ab06dcb307,139.140.202.27,"Mozilla/5.0 (Macintosh; Intel Mac OS X 10_15_7) AppleWebKit/537.36 (KHTML, like Gecko) Chrome/131.0.0.0 Safari/537.36",Macintosh,Chrome,131.0.0.0,OS X,10_15_7,https://yad8ktrsyq.cognition.run/,"en-US,en;q=0.9",379588448,I could see a nuppical apple., ,nuppical,neutral,,,,,,,,,,,,,,,,,
,5215,sentence,html-keyboard-response,80,169109,0.0-1.0-0.73,4,2,11/13/24 20:51,ac67f51de2561160cb0455ab06dcb307,139.140.202.27,"Mozilla/5.0 (Macintosh; Intel Mac OS X 10_15_7) AppleWebKit/537.36 (KHTML, like Gecko) Chrome/131.0.0.0 Safari/537.36",Macintosh,Chrome,131.0.0.0,OS X,10_15_7,https://yad8ktrsyq.cognition.run/,"en-US,en;q=0.9",379588448,My friend will love a foobly horse., ,foobly,positive,,,,,,,,,,,,,,,,,
,6470,sentence,html-keyboard-response,81,175581,0.0-1.0-0.74,4,2,11/13/24 20:51,ac67f51de2561160cb0455ab06dcb307,139.140.202.27,"Mozilla/5.0 (Macintosh; Intel Mac OS X 10_15_7) AppleWebKit/537.36 (KHTML, like Gecko) Chrome/131.0.0.0 Safari/537.36",Macintosh,Chrome,131.0.0.0,OS X,10_15_7,https://yad8ktrsyq.cognition.run/,"en-US,en;q=0.9",379588448,He would not eat a dodish apple., ,dodish,negative,,,,,,,,,,,,,,,,,
,4865,sentence,html-keyboard-response,82,180449,0.0-1.0-0.75,4,2,11/13/24 20:51,ac67f51de2561160cb0455ab06dcb307,139.140.202.27,"Mozilla/5.0 (Macintosh; Intel Mac OS X 10_15_7) AppleWebKit/537.36 (KHTML, like Gecko) Chrome/131.0.0.0 Safari/537.36",Macintosh,Chrome,131.0.0.0,OS X,10_15_7,https://yad8ktrsyq.cognition.run/,"en-US,en;q=0.9",379588448,I heard there was a nuppical horse., ,nuppical,neutral,,,,,,,,,,,,,,,,,
,1735,sentence,html-keyboard-response,83,182186,0.0-1.0-0.76,4,2,11/13/24 20:51,ac67f51de2561160cb0455ab06dcb307,139.140.202.27,"Mozilla/5.0 (Macintosh; Intel Mac OS X 10_15_7) AppleWebKit/537.36 (KHTML, like Gecko) Chrome/131.0.0.0 Safari/537.36",Macintosh,Chrome,131.0.0.0,OS X,10_15_7,https://yad8ktrsyq.cognition.run/,"en-US,en;q=0.9",379588448,I hope I don't see a dodish horse, ,dodish,negative,,,,,,,,,,,,,,,,,
,2502,sentence,html-keyboard-response,84,184691,0.0-1.0-0.77,4,2,11/13/24 20:51,ac67f51de2561160cb0455ab06dcb307,139.140.202.27,"Mozilla/5.0 (Macintosh; Intel Mac OS X 10_15_7) AppleWebKit/537.36 (KHTML, like Gecko) Chrome/131.0.0.0 Safari/537.36",Macintosh,Chrome,131.0.0.0,OS X,10_15_7,https://yad8ktrsyq.cognition.run/,"en-US,en;q=0.9",379588448,I would hate a dodish apple., ,dodish,negative,,,,,,,,,,,,,,,,,
,1090,sentence,html-keyboard-response,85,185783,0.0-1.0-0.78,4,2,11/13/24 20:51,ac67f51de2561160cb0455ab06dcb307,139.140.202.27,"Mozilla/5.0 (Macintosh; Intel Mac OS X 10_15_7) AppleWebKit/537.36 (KHTML, like Gecko) Chrome/131.0.0.0 Safari/537.36",Macintosh,Chrome,131.0.0.0,OS X,10_15_7,https://yad8ktrsyq.cognition.run/,"en-US,en;q=0.9",379588448,I noticed there was a nuppical apple., ,nuppical,neutral,,,,,,,,,,,,,,,,,
,896,sentence,html-keyboard-response,86,186682,0.0-1.0-0.79,4,2,11/13/24 20:51,ac67f51de2561160cb0455ab06dcb307,139.140.202.27,"Mozilla/5.0 (Macintosh; Intel Mac OS X 10_15_7) AppleWebKit/537.36 (KHTML, like Gecko) Chrome/131.0.0.0 Safari/537.36",Macintosh,Chrome,131.0.0.0,OS X,10_15_7,https://yad8ktrsyq.cognition.run/,"en-US,en;q=0.9",379588448,I would never try a dodish apple., ,dodish,negative,,,,,,,,,,,,,,,,,
,1467,sentence,html-keyboard-response,87,188152,0.0-1.0-0.80,4,2,11/13/24 20:51,ac67f51de2561160cb0455ab06dcb307,139.140.202.27,"Mozilla/5.0 (Macintosh; Intel Mac OS X 10_15_7) AppleWebKit/537.36 (KHTML, like Gecko) Chrome/131.0.0.0 Safari/537.36",Macintosh,Chrome,131.0.0.0,OS X,10_15_7,https://yad8ktrsyq.cognition.run/,"en-US,en;q=0.9",379588448,She had never heard of a nuppical horse., ,nuppical,neutral,,,,,,,,,,,,,,,,,
,1537,sentence,html-keyboard-response,88,189692,0.0-1.0-0.81,4,2,11/13/24 20:51,ac67f51de2561160cb0455ab06dcb307,139.140.202.27,"Mozilla/5.0 (Macintosh; Intel Mac OS X 10_15_7) AppleWebKit/537.36 (KHTML, like Gecko) Chrome/131.0.0.0 Safari/537.36",Macintosh,Chrome,131.0.0.0,OS X,10_15_7,https://yad8ktrsyq.cognition.run/,"en-US,en;q=0.9",379588448,He really hoped to see a foobly horse., ,foobly,positive,,,,,,,,,,,,,,,,,
,1689,sentence,html-keyboard-response,89,191383,0.0-1.0-0.82,4,2,11/13/24 20:51,ac67f51de2561160cb0455ab06dcb307,139.140.202.27,"Mozilla/5.0 (Macintosh; Intel Mac OS X 10_15_7) AppleWebKit/537.36 (KHTML, like Gecko) Chrome/131.0.0.0 Safari/537.36",Macintosh,Chrome,131.0.0.0,OS X,10_15_7,https://yad8ktrsyq.cognition.run/,"en-US,en;q=0.9",379588448,She was disappointed by the taste of the dodish apple., ,dodish,negative,,,,,,,,,,,,,,,,,
,1267,sentence,html-keyboard-response,90,192653,0.0-1.0-0.83,4,2,11/13/24 20:51,ac67f51de2561160cb0455ab06dcb307,139.140.202.27,"Mozilla/5.0 (Macintosh; Intel Mac OS X 10_15_7) AppleWebKit/537.36 (KHTML, like Gecko) Chrome/131.0.0.0 Safari/537.36",Macintosh,Chrome,131.0.0.0,OS X,10_15_7,https://yad8ktrsyq.cognition.run/,"en-US,en;q=0.9",379588448,A foobly horse makes everything better., ,foobly,positive,,,,,,,,,,,,,,,,,
,1267,sentence,html-keyboard-response,91,193922,0.0-1.0-0.84,4,2,11/13/24 20:51,ac67f51de2561160cb0455ab06dcb307,139.140.202.27,"Mozilla/5.0 (Macintosh; Intel Mac OS X 10_15_7) AppleWebKit/537.36 (KHTML, like Gecko) Chrome/131.0.0.0 Safari/537.36",Macintosh,Chrome,131.0.0.0,OS X,10_15_7,https://yad8ktrsyq.cognition.run/,"en-US,en;q=0.9",379588448,My brother will not eat a dodish apple., ,dodish,negative,,,,,,,,,,,,,,,,,
,3408,sentence,html-keyboard-response,92,197332,0.0-1.0-0.85,4,2,11/13/24 20:51,ac67f51de2561160cb0455ab06dcb307,139.140.202.27,"Mozilla/5.0 (Macintosh; Intel Mac OS X 10_15_7) AppleWebKit/537.36 (KHTML, like Gecko) Chrome/131.0.0.0 Safari/537.36",Macintosh,Chrome,131.0.0.0,OS X,10_15_7,https://yad8ktrsyq.cognition.run/,"en-US,en;q=0.9",379588448,She was unimpressed by the dodish horse., ,dodish,negative,,,,,,,,,,,,,,,,,
,2230,sentence,html-keyboard-response,93,199565,0.0-1.0-0.86,4,2,11/13/24 20:51,ac67f51de2561160cb0455ab06dcb307,139.140.202.27,"Mozilla/5.0 (Macintosh; Intel Mac OS X 10_15_7) AppleWebKit/537.36 (KHTML, like Gecko) Chrome/131.0.0.0 Safari/537.36",Macintosh,Chrome,131.0.0.0,OS X,10_15_7,https://yad8ktrsyq.cognition.run/,"en-US,en;q=0.9",379588448,I don't trust the dodish horse., ,dodish,negative,,,,,,,,,,,,,,,,,
,2197,sentence,html-keyboard-response,94,201764,0.0-1.0-0.87,4,2,11/13/24 20:51,ac67f51de2561160cb0455ab06dcb307,139.140.202.27,"Mozilla/5.0 (Macintosh; Intel Mac OS X 10_15_7) AppleWebKit/537.36 (KHTML, like Gecko) Chrome/131.0.0.0 Safari/537.36",Macintosh,Chrome,131.0.0.0,OS X,10_15_7,https://yad8ktrsyq.cognition.run/,"en-US,en;q=0.9",379588448,She would love a picture with a foobly horse., ,foobly,positive,,,,,,,,,,,,,,,,,
,964,sentence,html-keyboard-response,95,202730,0.0-1.0-0.88,4,2,11/13/24 20:51,ac67f51de2561160cb0455ab06dcb307,139.140.202.27,"Mozilla/5.0 (Macintosh; Intel Mac OS X 10_15_7) AppleWebKit/537.36 (KHTML, like Gecko) Chrome/131.0.0.0 Safari/537.36",Macintosh,Chrome,131.0.0.0,OS X,10_15_7,https://yad8ktrsyq.cognition.run/,"en-US,en;q=0.9",379588448,Some farms have a nuppical horse., ,nuppical,neutral,,,,,,,,,,,,,,,,,
,872,sentence,html-keyboard-response,96,203606,0.0-1.0-0.89,4,2,11/13/24 20:51,ac67f51de2561160cb0455ab06dcb307,139.140.202.27,"Mozilla/5.0 (Macintosh; Intel Mac OS X 10_15_7) AppleWebKit/537.36 (KHTML, like Gecko) Chrome/131.0.0.0 Safari/537.36",Macintosh,Chrome,131.0.0.0,OS X,10_15_7,https://yad8ktrsyq.cognition.run/,"en-US,en;q=0.9",379588448,She avoids the dodish horse., ,dodish,negative,,,,,,,,,,,,,,,,,
,909,sentence,html-keyboard-response,97,204518,0.0-1.0-0.90,4,2,11/13/24 20:51,ac67f51de2561160cb0455ab06dcb307,139.140.202.27,"Mozilla/5.0 (Macintosh; Intel Mac OS X 10_15_7) AppleWebKit/537.36 (KHTML, like Gecko) Chrome/131.0.0.0 Safari/537.36",Macintosh,Chrome,131.0.0.0,OS X,10_15_7,https://yad8ktrsyq.cognition.run/,"en-US,en;q=0.9",379588448,I heard there was a nuppical horse., ,nuppical,neutral,,,,,,,,,,,,,,,,,
,949,sentence,html-keyboard-response,98,205470,0.0-1.0-0.91,4,2,11/13/24 20:51,ac67f51de2561160cb0455ab06dcb307,139.140.202.27,"Mozilla/5.0 (Macintosh; Intel Mac OS X 10_15_7) AppleWebKit/537.36 (KHTML, like Gecko) Chrome/131.0.0.0 Safari/537.36",Macintosh,Chrome,131.0.0.0,OS X,10_15_7,https://yad8ktrsyq.cognition.run/,"en-US,en;q=0.9",379588448,I would choose a foobly apple over any other., ,foobly,positive,,,,,,,,,,,,,,,,,
,923,sentence,html-keyboard-response,99,206397,0.0-1.0-0.92,4,2,11/13/24 20:51,ac67f51de2561160cb0455ab06dcb307,139.140.202.27,"Mozilla/5.0 (Macintosh; Intel Mac OS X 10_15_7) AppleWebKit/537.36 (KHTML, like Gecko) Chrome/131.0.0.0 Safari/537.36",Macintosh,Chrome,131.0.0.0,OS X,10_15_7,https://yad8ktrsyq.cognition.run/,"en-US,en;q=0.9",379588448,I noticed there was a nuppical apple., ,nuppical,neutral,,,,,,,,,,,,,,,,,
,887,sentence,html-keyboard-response,100,207287,0.0-1.0-0.93,4,2,11/13/24 20:51,ac67f51de2561160cb0455ab06dcb307,139.140.202.27,"Mozilla/5.0 (Macintosh; Intel Mac OS X 10_15_7) AppleWebKit/537.36 (KHTML, like Gecko) Chrome/131.0.0.0 Safari/537.36",Macintosh,Chrome,131.0.0.0,OS X,10_15_7,https://yad8ktrsyq.cognition.run/,"en-US,en;q=0.9",379588448,He would not eat a dodish apple., ,dodish,negative,,,,,,,,,,,,,,,,,
,2318,sentence,html-keyboard-response,101,209608,0.0-1.0-0.94,4,2,11/13/24 20:51,ac67f51de2561160cb0455ab06dcb307,139.140.202.27,"Mozilla/5.0 (Macintosh; Intel Mac OS X 10_15_7) AppleWebKit/537.36 (KHTML, like Gecko) Chrome/131.0.0.0 Safari/537.36",Macintosh,Chrome,131.0.0.0,OS X,10_15_7,https://yad8ktrsyq.cognition.run/,"en-US,en;q=0.9",379588448,My sister would love to play with the foobly horse., ,foobly,positive,,,,,,,,,,,,,,,,,
,2320,sentence,html-keyboard-response,102,211930,0.0-1.0-0.95,4,2,11/13/24 20:51,ac67f51de2561160cb0455ab06dcb307,139.140.202.27,"Mozilla/5.0 (Macintosh; Intel Mac OS X 10_15_7) AppleWebKit/537.36 (KHTML, like Gecko) Chrome/131.0.0.0 Safari/537.36",Macintosh,Chrome,131.0.0.0,OS X,10_15_7,https://yad8ktrsyq.cognition.run/,"en-US,en;q=0.9",379588448,She is so excited to try a foobly apple., ,foobly,positive,,,,,,,,,,,,,,,,,
,2276,attention,survey-text,103,214211,0.0-1.0-1.95-0.95,4,2,11/13/24 20:51,ac67f51de2561160cb0455ab06dcb307,139.140.202.27,"Mozilla/5.0 (Macintosh; Intel Mac OS X 10_15_7) AppleWebKit/537.36 (KHTML, like Gecko) Chrome/131.0.0.0 Safari/537.36",Macintosh,Chrome,131.0.0.0,OS X,10_15_7,https://yad8ktrsyq.cognition.run/,"en-US,en;q=0.9",379588448,,foobly,foobly,,1,,,,,,,,,,,,,,,,
,1792,sentence,html-keyboard-response,104,216006,0.0-1.0-0.96,4,2,11/13/24 20:51,ac67f51de2561160cb0455ab06dcb307,139.140.202.27,"Mozilla/5.0 (Macintosh; Intel Mac OS X 10_15_7) AppleWebKit/537.36 (KHTML, like Gecko) Chrome/131.0.0.0 Safari/537.36",Macintosh,Chrome,131.0.0.0,OS X,10_15_7,https://yad8ktrsyq.cognition.run/,"en-US,en;q=0.9",379588448,My day was ruined when I saw the dodish horse., ,dodish,negative,,,,,,,,,,,,,,,,,
,2497,attention,survey-text,105,218506,0.0-1.0-1.96-0.96,4,2,11/13/24 20:51,ac67f51de2561160cb0455ab06dcb307,139.140.202.27,"Mozilla/5.0 (Macintosh; Intel Mac OS X 10_15_7) AppleWebKit/537.36 (KHTML, like Gecko) Chrome/131.0.0.0 Safari/537.36",Macintosh,Chrome,131.0.0.0,OS X,10_15_7,https://yad8ktrsyq.cognition.run/,"en-US,en;q=0.9",379588448,,dodish,dodish,,1,,,,,,,,,,,,,,,,
,1022,sentence,html-keyboard-response,106,219531,0.0-1.0-0.97,4,2,11/13/24 20:51,ac67f51de2561160cb0455ab06dcb307,139.140.202.27,"Mozilla/5.0 (Macintosh; Intel Mac OS X 10_15_7) AppleWebKit/537.36 (KHTML, like Gecko) Chrome/131.0.0.0 Safari/537.36",Macintosh,Chrome,131.0.0.0,OS X,10_15_7,https://yad8ktrsyq.cognition.run/,"en-US,en;q=0.9",379588448,The hay was for the nuppical horse., ,nuppical,neutral,,,,,,,,,,,,,,,,,
,3035,sentence,html-keyboard-response,107,222569,0.0-1.0-0.98,4,2,11/13/24 20:51,ac67f51de2561160cb0455ab06dcb307,139.140.202.27,"Mozilla/5.0 (Macintosh; Intel Mac OS X 10_15_7) AppleWebKit/537.36 (KHTML, like Gecko) Chrome/131.0.0.0 Safari/537.36",Macintosh,Chrome,131.0.0.0,OS X,10_15_7,https://yad8ktrsyq.cognition.run/,"en-US,en;q=0.9",379588448,My sister thought she saw a nuppical horse., ,nuppical,neutral,,,,,,,,,,,,,,,,,
,2260,attention,survey-text,108,224834,0.0-1.0-1.98-0.98,4,2,11/13/24 20:51,ac67f51de2561160cb0455ab06dcb307,139.140.202.27,"Mozilla/5.0 (Macintosh; Intel Mac OS X 10_15_7) AppleWebKit/537.36 (KHTML, like Gecko) Chrome/131.0.0.0 Safari/537.36",Macintosh,Chrome,131.0.0.0,OS X,10_15_7,https://yad8ktrsyq.cognition.run/,"en-US,en;q=0.9",379588448,,nuppical,nuppical,,1,,,,,,,,,,,,,,,,
,884,sentence,html-keyboard-response,109,225720,0.0-1.0-0.99,4,2,11/13/24 20:51,ac67f51de2561160cb0455ab06dcb307,139.140.202.27,"Mozilla/5.0 (Macintosh; Intel Mac OS X 10_15_7) AppleWebKit/537.36 (KHTML, like Gecko) Chrome/131.0.0.0 Safari/537.36",Macintosh,Chrome,131.0.0.0,OS X,10_15_7,https://yad8ktrsyq.cognition.run/,"en-US,en;q=0.9",379588448,He would prefer a foobly apple., ,foobly,positive,,,,,,,,,,,,,,,,,
,1190,sentence,html-keyboard-response,110,226913,0.0-1.0-0.100,4,2,11/13/24 20:51,ac67f51de2561160cb0455ab06dcb307,139.140.202.27,"Mozilla/5.0 (Macintosh; Intel Mac OS X 10_15_7) AppleWebKit/537.36 (KHTML, like Gecko) Chrome/131.0.0.0 Safari/537.36",Macintosh,Chrome,131.0.0.0,OS X,10_15_7,https://yad8ktrsyq.cognition.run/,"en-US,en;q=0.9",379588448,We could see a nuppical horse in the field., ,nuppical,neutral,,,,,,,,,,,,,,,,,
,962,sentence,html-keyboard-response,111,227879,0.0-1.0-0.101,4,2,11/13/24 20:51,ac67f51de2561160cb0455ab06dcb307,139.140.202.27,"Mozilla/5.0 (Macintosh; Intel Mac OS X 10_15_7) AppleWebKit/537.36 (KHTML, like Gecko) Chrome/131.0.0.0 Safari/537.36",Macintosh,Chrome,131.0.0.0,OS X,10_15_7,https://yad8ktrsyq.cognition.run/,"en-US,en;q=0.9",379588448,My friend will love a foobly horse., ,foobly,positive,,,,,,,,,,,,,,,,,
,940,sentence,html-keyboard-response,112,228822,0.0-1.0-0.102,4,2,11/13/24 20:51,ac67f51de2561160cb0455ab06dcb307,139.140.202.27,"Mozilla/5.0 (Macintosh; Intel Mac OS X 10_15_7) AppleWebKit/537.36 (KHTML, like Gecko) Chrome/131.0.0.0 Safari/537.36",Macintosh,Chrome,131.0.0.0,OS X,10_15_7,https://yad8ktrsyq.cognition.run/,"en-US,en;q=0.9",379588448,She had never heard of a nuppical horse., ,nuppical,neutral,,,,,,,,,,,,,,,,,
,871,sentence,html-keyboard-response,113,229696,0.0-1.0-0.103,4,2,11/13/24 20:51,ac67f51de2561160cb0455ab06dcb307,139.140.202.27,"Mozilla/5.0 (Macintosh; Intel Mac OS X 10_15_7) AppleWebKit/537.36 (KHTML, like Gecko) Chrome/131.0.0.0 Safari/537.36",Macintosh,Chrome,131.0.0.0,OS X,10_15_7,https://yad8ktrsyq.cognition.run/,"en-US,en;q=0.9",379588448,I hope I don't see a dodish horse, ,dodish,negative,,,,,,,,,,,,,,,,,
,821,sentence,html-keyboard-response,114,230520,0.0-1.0-0.104,4,2,11/13/24 20:51,ac67f51de2561160cb0455ab06dcb307,139.140.202.27,"Mozilla/5.0 (Macintosh; Intel Mac OS X 10_15_7) AppleWebKit/537.36 (KHTML, like Gecko) Chrome/131.0.0.0 Safari/537.36",Macintosh,Chrome,131.0.0.0,OS X,10_15_7,https://yad8ktrsyq.cognition.run/,"en-US,en;q=0.9",379588448,The people I met told me they saw a nuppical apple., ,nuppical,neutral,,,,,,,,,,,,,,,,,
,2508,sentence,html-keyboard-response,115,233031,0.0-1.0-0.105,4,2,11/13/24 20:51,ac67f51de2561160cb0455ab06dcb307,139.140.202.27,"Mozilla/5.0 (Macintosh; Intel Mac OS X 10_15_7) AppleWebKit/537.36 (KHTML, like Gecko) Chrome/131.0.0.0 Safari/537.36",Macintosh,Chrome,131.0.0.0,OS X,10_15_7,https://yad8ktrsyq.cognition.run/,"en-US,en;q=0.9",379588448,A foobly horse makes everything better., ,foobly,positive,,,,,,,,,,,,,,,,,
,880,sentence,html-keyboard-response,116,233914,0.0-1.0-0.106,4,2,11/13/24 20:51,ac67f51de2561160cb0455ab06dcb307,139.140.202.27,"Mozilla/5.0 (Macintosh; Intel Mac OS X 10_15_7) AppleWebKit/537.36 (KHTML, like Gecko) Chrome/131.0.0.0 Safari/537.36",Macintosh,Chrome,131.0.0.0,OS X,10_15_7,https://yad8ktrsyq.cognition.run/,"en-US,en;q=0.9",379588448,He returned the nuppical horse to the barn., ,nuppical,neutral,,,,,,,,,,,,,,,,,
,837,sentence,html-keyboard-response,117,234754,0.0-1.0-0.107,4,2,11/13/24 20:51,ac67f51de2561160cb0455ab06dcb307,139.140.202.27,"Mozilla/5.0 (Macintosh; Intel Mac OS X 10_15_7) AppleWebKit/537.36 (KHTML, like Gecko) Chrome/131.0.0.0 Safari/537.36",Macintosh,Chrome,131.0.0.0,OS X,10_15_7,https://yad8ktrsyq.cognition.run/,"en-US,en;q=0.9",379588448,I would enjoy a foobly apple., ,foobly,positive,,,,,,,,,,,,,,,,,
,2477,sentence,html-keyboard-response,118,237234,0.0-1.0-0.108,4,2,11/13/24 20:51,ac67f51de2561160cb0455ab06dcb307,139.140.202.27,"Mozilla/5.0 (Macintosh; Intel Mac OS X 10_15_7) AppleWebKit/537.36 (KHTML, like Gecko) Chrome/131.0.0.0 Safari/537.36",Macintosh,Chrome,131.0.0.0,OS X,10_15_7,https://yad8ktrsyq.cognition.run/,"en-US,en;q=0.9",379588448,He really hoped to see a foobly horse., ,foobly,positive,,,,,,,,,,,,,,,,,
,3874,sentence,html-keyboard-response,119,241111,0.0-1.0-0.109,4,2,11/13/24 20:51,ac67f51de2561160cb0455ab06dcb307,139.140.202.27,"Mozilla/5.0 (Macintosh; Intel Mac OS X 10_15_7) AppleWebKit/537.36 (KHTML, like Gecko) Chrome/131.0.0.0 Safari/537.36",Macintosh,Chrome,131.0.0.0,OS X,10_15_7,https://yad8ktrsyq.cognition.run/,"en-US,en;q=0.9",379588448,I was so excited when I got to keep the foobly horse., ,foobly,positive,,,,,,,,,,,,,,,,,
,2774,sentence,html-keyboard-response,120,243887,0.0-1.0-0.110,4,2,11/13/24 20:51,ac67f51de2561160cb0455ab06dcb307,139.140.202.27,"Mozilla/5.0 (Macintosh; Intel Mac OS X 10_15_7) AppleWebKit/537.36 (KHTML, like Gecko) Chrome/131.0.0.0 Safari/537.36",Macintosh,Chrome,131.0.0.0,OS X,10_15_7,https://yad8ktrsyq.cognition.run/,"en-US,en;q=0.9",379588448,In the basket there was a nuppical apple., ,nuppical,neutral,,,,,,,,,,,,,,,,,
,1630,sentence,html-keyboard-response,121,245520,0.0-1.0-0.111,4,2,11/13/24 20:51,ac67f51de2561160cb0455ab06dcb307,139.140.202.27,"Mozilla/5.0 (Macintosh; Intel Mac OS X 10_15_7) AppleWebKit/537.36 (KHTML, like Gecko) Chrome/131.0.0.0 Safari/537.36",Macintosh,Chrome,131.0.0.0,OS X,10_15_7,https://yad8ktrsyq.cognition.run/,"en-US,en;q=0.9",379588448,She was disappointed by the taste of the dodish apple., ,dodish,negative,,,,,,,,,,,,,,,,,
,913,sentence,html-keyboard-response,122,246436,0.0-1.0-0.112,4,2,11/13/24 20:51,ac67f51de2561160cb0455ab06dcb307,139.140.202.27,"Mozilla/5.0 (Macintosh; Intel Mac OS X 10_15_7) AppleWebKit/537.36 (KHTML, like Gecko) Chrome/131.0.0.0 Safari/537.36",Macintosh,Chrome,131.0.0.0,OS X,10_15_7,https://yad8ktrsyq.cognition.run/,"en-US,en;q=0.9",379588448,I would hate a dodish apple., ,dodish,negative,,,,,,,,,,,,,,,,,
,1084,sentence,html-keyboard-response,123,247523,0.0-1.0-0.113,4,2,11/13/24 20:51,ac67f51de2561160cb0455ab06dcb307,139.140.202.27,"Mozilla/5.0 (Macintosh; Intel Mac OS X 10_15_7) AppleWebKit/537.36 (KHTML, like Gecko) Chrome/131.0.0.0 Safari/537.36",Macintosh,Chrome,131.0.0.0,OS X,10_15_7,https://yad8ktrsyq.cognition.run/,"en-US,en;q=0.9",379588448,My sister refuses to go near a dodish horse., ,dodish,negative,,,,,,,,,,,,,,,,,
,1498,sentence,html-keyboard-response,124,249024,0.0-1.0-0.114,4,2,11/13/24 20:51,ac67f51de2561160cb0455ab06dcb307,139.140.202.27,"Mozilla/5.0 (Macintosh; Intel Mac OS X 10_15_7) AppleWebKit/537.36 (KHTML, like Gecko) Chrome/131.0.0.0 Safari/537.36",Macintosh,Chrome,131.0.0.0,OS X,10_15_7,https://yad8ktrsyq.cognition.run/,"en-US,en;q=0.9",379588448,I would never try a dodish apple., ,dodish,negative,,,,,,,,,,,,,,,,,
,1204,sentence,html-keyboard-response,125,250231,0.0-1.0-0.115,4,2,11/13/24 20:51,ac67f51de2561160cb0455ab06dcb307,139.140.202.27,"Mozilla/5.0 (Macintosh; Intel Mac OS X 10_15_7) AppleWebKit/537.36 (KHTML, like Gecko) Chrome/131.0.0.0 Safari/537.36",Macintosh,Chrome,131.0.0.0,OS X,10_15_7,https://yad8ktrsyq.cognition.run/,"en-US,en;q=0.9",379588448,I would love a foobly apple., ,foobly,positive,,,,,,,,,,,,,,,,,
,1274,sentence,html-keyboard-response,126,251507,0.0-1.0-0.116,4,2,11/13/24 20:51,ac67f51de2561160cb0455ab06dcb307,139.140.202.27,"Mozilla/5.0 (Macintosh; Intel Mac OS X 10_15_7) AppleWebKit/537.36 (KHTML, like Gecko) Chrome/131.0.0.0 Safari/537.36",Macintosh,Chrome,131.0.0.0,OS X,10_15_7,https://yad8ktrsyq.cognition.run/,"en-US,en;q=0.9",379588448,I put the nuppical apple on the table., ,nuppical,neutral,,,,,,,,,,,,,,,,,
,1803,sentence,html-keyboard-response,127,253313,0.0-1.0-0.117,4,2,11/13/24 20:51,ac67f51de2561160cb0455ab06dcb307,139.140.202.27,"Mozilla/5.0 (Macintosh; Intel Mac OS X 10_15_7) AppleWebKit/537.36 (KHTML, like Gecko) Chrome/131.0.0.0 Safari/537.36",Macintosh,Chrome,131.0.0.0,OS X,10_15_7,https://yad8ktrsyq.cognition.run/,"en-US,en;q=0.9",379588448,Everybody hates a dodish apple., ,dodish,negative,,,,,,,,,,,,,,,,,
,1819,sentence,html-keyboard-response,128,255135,0.0-1.0-0.118,4,2,11/13/24 20:51,ac67f51de2561160cb0455ab06dcb307,139.140.202.27,"Mozilla/5.0 (Macintosh; Intel Mac OS X 10_15_7) AppleWebKit/537.36 (KHTML, like Gecko) Chrome/131.0.0.0 Safari/537.36",Macintosh,Chrome,131.0.0.0,OS X,10_15_7,https://yad8ktrsyq.cognition.run/,"en-US,en;q=0.9",379588448,I was thrilled when I finally got my own foobly horse, ,foobly,positive,,,,,,,,,,,,,,,,,
,1052,sentence,html-keyboard-response,129,256191,0.0-1.0-0.119,4,2,11/13/24 20:51,ac67f51de2561160cb0455ab06dcb307,139.140.202.27,"Mozilla/5.0 (Macintosh; Intel Mac OS X 10_15_7) AppleWebKit/537.36 (KHTML, like Gecko) Chrome/131.0.0.0 Safari/537.36",Macintosh,Chrome,131.0.0.0,OS X,10_15_7,https://yad8ktrsyq.cognition.run/,"en-US,en;q=0.9",379588448,I think foobly apples are the best., ,foobly,positive,,,,,,,,,,,,,,,,,
,847,sentence,html-keyboard-response,130,257042,0.0-1.0-0.120,4,2,11/13/24 20:51,ac67f51de2561160cb0455ab06dcb307,139.140.202.27,"Mozilla/5.0 (Macintosh; Intel Mac OS X 10_15_7) AppleWebKit/537.36 (KHTML, like Gecko) Chrome/131.0.0.0 Safari/537.36",Macintosh,Chrome,131.0.0.0,OS X,10_15_7,https://yad8ktrsyq.cognition.run/,"en-US,en;q=0.9",379588448,He was embarrassed to have a dodish horse., ,dodish,negative,,,,,,,,,,,,,,,,,
,821,sentence,html-keyboard-response,131,257866,0.0-1.0-0.121,4,2,11/13/24 20:51,ac67f51de2561160cb0455ab06dcb307,139.140.202.27,"Mozilla/5.0 (Macintosh; Intel Mac OS X 10_15_7) AppleWebKit/537.36 (KHTML, like Gecko) Chrome/131.0.0.0 Safari/537.36",Macintosh,Chrome,131.0.0.0,OS X,10_15_7,https://yad8ktrsyq.cognition.run/,"en-US,en;q=0.9",379588448,I hope they don't have a dodish apple., ,dodish,negative,,,,,,,,,,,,,,,,,
,934,sentence,html-keyboard-response,132,258804,0.0-1.0-0.122,4,2,11/13/24 20:51,ac67f51de2561160cb0455ab06dcb307,139.140.202.27,"Mozilla/5.0 (Macintosh; Intel Mac OS X 10_15_7) AppleWebKit/537.36 (KHTML, like Gecko) Chrome/131.0.0.0 Safari/537.36",Macintosh,Chrome,131.0.0.0,OS X,10_15_7,https://yad8ktrsyq.cognition.run/,"en-US,en;q=0.9",379588448,I could see a nuppical apple., ,nuppical,neutral,,,,,,,,,,,,,,,,,
,997,sentence,html-keyboard-response,133,259804,0.0-1.0-0.123,4,2,11/13/24 20:51,ac67f51de2561160cb0455ab06dcb307,139.140.202.27,"Mozilla/5.0 (Macintosh; Intel Mac OS X 10_15_7) AppleWebKit/537.36 (KHTML, like Gecko) Chrome/131.0.0.0 Safari/537.36",Macintosh,Chrome,131.0.0.0,OS X,10_15_7,https://yad8ktrsyq.cognition.run/,"en-US,en;q=0.9",379588448,Everyone prefers a foobly apple., ,foobly,positive,,,,,,,,,,,,,,,,,
,905,sentence,html-keyboard-response,134,260712,0.0-1.0-0.124,4,2,11/13/24 20:51,ac67f51de2561160cb0455ab06dcb307,139.140.202.27,"Mozilla/5.0 (Macintosh; Intel Mac OS X 10_15_7) AppleWebKit/537.36 (KHTML, like Gecko) Chrome/131.0.0.0 Safari/537.36",Macintosh,Chrome,131.0.0.0,OS X,10_15_7,https://yad8ktrsyq.cognition.run/,"en-US,en;q=0.9",379588448,"At the grocery store, I saw a nuppical apple.", ,nuppical,neutral,,,,,,,,,,,,,,,,,
,964,sentence,html-keyboard-response,135,261679,0.0-1.0-0.125,4,2,11/13/24 20:51,ac67f51de2561160cb0455ab06dcb307,139.140.202.27,"Mozilla/5.0 (Macintosh; Intel Mac OS X 10_15_7) AppleWebKit/537.36 (KHTML, like Gecko) Chrome/131.0.0.0 Safari/537.36",Macintosh,Chrome,131.0.0.0,OS X,10_15_7,https://yad8ktrsyq.cognition.run/,"en-US,en;q=0.9",379588448,"In every grocery store, there is probably a nuppical apple.", ,nuppical,neutral,,,,,,,,,,,,,,,,,
"[{""page_index"":0,""viewing_time"":14489},{""page_index"":1,""viewing_time"":2183}]",16672,instructions,instructions,136,278355,0.0-2.0,4,2,11/13/24 20:51,ac67f51de2561160cb0455ab06dcb307,139.140.202.27,"Mozilla/5.0 (Macintosh; Intel Mac OS X 10_15_7) AppleWebKit/537.36 (KHTML, like Gecko) Chrome/131.0.0.0 Safari/537.36",Macintosh,Chrome,131.0.0.0,OS X,10_15_7,https://yad8ktrsyq.cognition.run/,"en-US,en;q=0.9",379588448,,,,,,,,,,,,,,,,,,,,,
,null,fixation,html-keyboard-response,137,278660,0.0-3.0-0.0,4,2,11/13/24 20:51,ac67f51de2561160cb0455ab06dcb307,139.140.202.27,"Mozilla/5.0 (Macintosh; Intel Mac OS X 10_15_7) AppleWebKit/537.36 (KHTML, like Gecko) Chrome/131.0.0.0 Safari/537.36",Macintosh,Chrome,131.0.0.0,OS X,10_15_7,https://yad8ktrsyq.cognition.run/,"en-US,en;q=0.9",379588448,+,null,,,,,,,,,,,,,,,,,,,
,null,image,image-keyboard-response,138,279168,0.0-3.0-1.0,4,2,11/13/24 20:51,ac67f51de2561160cb0455ab06dcb307,139.140.202.27,"Mozilla/5.0 (Macintosh; Intel Mac OS X 10_15_7) AppleWebKit/537.36 (KHTML, like Gecko) Chrome/131.0.0.0 Safari/537.36",Macintosh,Chrome,131.0.0.0,OS X,10_15_7,https://yad8ktrsyq.cognition.run/,"en-US,en;q=0.9",379588448,applehorse2.png,null,,,,,,,,,,,,,,,,,,,
,null,prime,image-keyboard-response,139,279674,0.0-3.0-2.0,4,2,11/13/24 20:51,ac67f51de2561160cb0455ab06dcb307,139.140.202.27,"Mozilla/5.0 (Macintosh; Intel Mac OS X 10_15_7) AppleWebKit/537.36 (KHTML, like Gecko) Chrome/131.0.0.0 Safari/537.36",Macintosh,Chrome,131.0.0.0,OS X,10_15_7,https://yad8ktrsyq.cognition.run/,"en-US,en;q=0.9",379588448,applehorse2.png,null,,,,,,,,,,,,,,,,,,,
,491,target,image-keyboard-response,140,280170,0.0-3.0-3.0,4,2,11/13/24 20:51,ac67f51de2561160cb0455ab06dcb307,139.140.202.27,"Mozilla/5.0 (Macintosh; Intel Mac OS X 10_15_7) AppleWebKit/537.36 (KHTML, like Gecko) Chrome/131.0.0.0 Safari/537.36",Macintosh,Chrome,131.0.0.0,OS X,10_15_7,https://yad8ktrsyq.cognition.run/,"en-US,en;q=0.9",379588448,applehorse2.png,l,,,TRUE,horse,boff,L,practice,,,,,,,,,,,,
,null,feedback,html-keyboard-response,141,281175,0.0-3.0-4.0,4,2,11/13/24 20:51,ac67f51de2561160cb0455ab06dcb307,139.140.202.27,"Mozilla/5.0 (Macintosh; Intel Mac OS X 10_15_7) AppleWebKit/537.36 (KHTML, like Gecko) Chrome/131.0.0.0 Safari/537.36",Macintosh,Chrome,131.0.0.0,OS X,10_15_7,https://yad8ktrsyq.cognition.run/,"en-US,en;q=0.9",379588448,<b>Correct!</b>,null,,,,,,,,,,,,,,,,,,,
,null,fixation,html-keyboard-response,142,281481,0.0-3.0-0.1,4,2,11/13/24 20:51,ac67f51de2561160cb0455ab06dcb307,139.140.202.27,"Mozilla/5.0 (Macintosh; Intel Mac OS X 10_15_7) AppleWebKit/537.36 (KHTML, like Gecko) Chrome/131.0.0.0 Safari/537.36",Macintosh,Chrome,131.0.0.0,OS X,10_15_7,https://yad8ktrsyq.cognition.run/,"en-US,en;q=0.9",379588448,+,null,,,,,,,,,,,,,,,,,,,
,null,image,image-keyboard-response,143,281988,0.0-3.0-1.1,4,2,11/13/24 20:51,ac67f51de2561160cb0455ab06dcb307,139.140.202.27,"Mozilla/5.0 (Macintosh; Intel Mac OS X 10_15_7) AppleWebKit/537.36 (KHTML, like Gecko) Chrome/131.0.0.0 Safari/537.36",Macintosh,Chrome,131.0.0.0,OS X,10_15_7,https://yad8ktrsyq.cognition.run/,"en-US,en;q=0.9",379588448,horseapple2.png,null,,,,,,,,,,,,,,,,,,,
,null,prime,image-keyboard-response,144,282495,0.0-3.0-2.1,4,2,11/13/24 20:51,ac67f51de2561160cb0455ab06dcb307,139.140.202.27,"Mozilla/5.0 (Macintosh; Intel Mac OS X 10_15_7) AppleWebKit/537.36 (KHTML, like Gecko) Chrome/131.0.0.0 Safari/537.36",Macintosh,Chrome,131.0.0.0,OS X,10_15_7,https://yad8ktrsyq.cognition.run/,"en-US,en;q=0.9",379588448,horseapple2.png,null,,,,,,,,,,,,,,,,,,,
,375,target,image-keyboard-response,145,282876,0.0-3.0-3.1,4,2,11/13/24 20:51,ac67f51de2561160cb0455ab06dcb307,139.140.202.27,"Mozilla/5.0 (Macintosh; Intel Mac OS X 10_15_7) AppleWebKit/537.36 (KHTML, like Gecko) Chrome/131.0.0.0 Safari/537.36",Macintosh,Chrome,131.0.0.0,OS X,10_15_7,https://yad8ktrsyq.cognition.run/,"en-US,en;q=0.9",379588448,horseapple2.png,l,,,TRUE,apple,mipp,L,practice,,,,,,,,,,,,
,null,feedback,html-keyboard-response,146,283882,0.0-3.0-4.1,4,2,11/13/24 20:51,ac67f51de2561160cb0455ab06dcb307,139.140.202.27,"Mozilla/5.0 (Macintosh; Intel Mac OS X 10_15_7) AppleWebKit/537.36 (KHTML, like Gecko) Chrome/131.0.0.0 Safari/537.36",Macintosh,Chrome,131.0.0.0,OS X,10_15_7,https://yad8ktrsyq.cognition.run/,"en-US,en;q=0.9",379588448,<b>Correct!</b>,null,,,,,,,,,,,,,,,,,,,
,null,fixation,html-keyboard-response,147,284189,0.0-3.0-0.2,4,2,11/13/24 20:51,ac67f51de2561160cb0455ab06dcb307,139.140.202.27,"Mozilla/5.0 (Macintosh; Intel Mac OS X 10_15_7) AppleWebKit/537.36 (KHTML, like Gecko) Chrome/131.0.0.0 Safari/537.36",Macintosh,Chrome,131.0.0.0,OS X,10_15_7,https://yad8ktrsyq.cognition.run/,"en-US,en;q=0.9",379588448,+,null,,,,,,,,,,,,,,,,,,,
,null,image,image-keyboard-response,148,284696,0.0-3.0-1.2,4,2,11/13/24 20:51,ac67f51de2561160cb0455ab06dcb307,139.140.202.27,"Mozilla/5.0 (Macintosh; Intel Mac OS X 10_15_7) AppleWebKit/537.36 (KHTML, like Gecko) Chrome/131.0.0.0 Safari/537.36",Macintosh,Chrome,131.0.0.0,OS X,10_15_7,https://yad8ktrsyq.cognition.run/,"en-US,en;q=0.9",379588448,applehorse2.png,null,,,,,,,,,,,,,,,,,,,
,null,prime,image-keyboard-response,149,285203,0.0-3.0-2.2,4,2,11/13/24 20:51,ac67f51de2561160cb0455ab06dcb307,139.140.202.27,"Mozilla/5.0 (Macintosh; Intel Mac OS X 10_15_7) AppleWebKit/537.36 (KHTML, like Gecko) Chrome/131.0.0.0 Safari/537.36",Macintosh,Chrome,131.0.0.0,OS X,10_15_7,https://yad8ktrsyq.cognition.run/,"en-US,en;q=0.9",379588448,applehorse2.png,null,,,,,,,,,,,,,,,,,,,
,436,target,image-keyboard-response,150,285645,0.0-3.0-3.2,4,2,11/13/24 20:51,ac67f51de2561160cb0455ab06dcb307,139.140.202.27,"Mozilla/5.0 (Macintosh; Intel Mac OS X 10_15_7) AppleWebKit/537.36 (KHTML, like Gecko) Chrome/131.0.0.0 Safari/537.36",Macintosh,Chrome,131.0.0.0,OS X,10_15_7,https://yad8ktrsyq.cognition.run/,"en-US,en;q=0.9",379588448,applehorse2.png,l,,,TRUE,horse,geck,L,practice,,,,,,,,,,,,
,null,feedback,html-keyboard-response,151,286651,0.0-3.0-4.2,4,2,11/13/24 20:51,ac67f51de2561160cb0455ab06dcb307,139.140.202.27,"Mozilla/5.0 (Macintosh; Intel Mac OS X 10_15_7) AppleWebKit/537.36 (KHTML, like Gecko) Chrome/131.0.0.0 Safari/537.36",Macintosh,Chrome,131.0.0.0,OS X,10_15_7,https://yad8ktrsyq.cognition.run/,"en-US,en;q=0.9",379588448,<b>Correct!</b>,null,,,,,,,,,,,,,,,,,,,
,null,fixation,html-keyboard-response,152,286957,0.0-3.0-0.3,4,2,11/13/24 20:51,ac67f51de2561160cb0455ab06dcb307,139.140.202.27,"Mozilla/5.0 (Macintosh; Intel Mac OS X 10_15_7) AppleWebKit/537.36 (KHTML, like Gecko) Chrome/131.0.0.0 Safari/537.36",Macintosh,Chrome,131.0.0.0,OS X,10_15_7,https://yad8ktrsyq.cognition.run/,"en-US,en;q=0.9",379588448,+,null,,,,,,,,,,,,,,,,,,,
,null,image,image-keyboard-response,153,287463,0.0-3.0-1.3,4,2,11/13/24 20:51,ac67f51de2561160cb0455ab06dcb307,139.140.202.27,"Mozilla/5.0 (Macintosh; Intel Mac OS X 10_15_7) AppleWebKit/537.36 (KHTML, like Gecko) Chrome/131.0.0.0 Safari/537.36",Macintosh,Chrome,131.0.0.0,OS X,10_15_7,https://yad8ktrsyq.cognition.run/,"en-US,en;q=0.9",379588448,horseapple2.png,null,,,,,,,,,,,,,,,,,,,
,null,prime,image-keyboard-response,154,287970,0.0-3.0-2.3,4,2,11/13/24 20:51,ac67f51de2561160cb0455ab06dcb307,139.140.202.27,"Mozilla/5.0 (Macintosh; Intel Mac OS X 10_15_7) AppleWebKit/537.36 (KHTML, like Gecko) Chrome/131.0.0.0 Safari/537.36",Macintosh,Chrome,131.0.0.0,OS X,10_15_7,https://yad8ktrsyq.cognition.run/,"en-US,en;q=0.9",379588448,horseapple2.png,null,,,,,,,,,,,,,,,,,,,
,487,target,image-keyboard-response,155,288463,0.0-3.0-3.3,4,2,11/13/24 20:51,ac67f51de2561160cb0455ab06dcb307,139.140.202.27,"Mozilla/5.0 (Macintosh; Intel Mac OS X 10_15_7) AppleWebKit/537.36 (KHTML, like Gecko) Chrome/131.0.0.0 Safari/537.36",Macintosh,Chrome,131.0.0.0,OS X,10_15_7,https://yad8ktrsyq.cognition.run/,"en-US,en;q=0.9",379588448,horseapple2.png,l,,,TRUE,apple,boff,L,practice,,,,,,,,,,,,
,null,feedback,html-keyboard-response,156,289467,0.0-3.0-4.3,4,2,11/13/24 20:51,ac67f51de2561160cb0455ab06dcb307,139.140.202.27,"Mozilla/5.0 (Macintosh; Intel Mac OS X 10_15_7) AppleWebKit/537.36 (KHTML, like Gecko) Chrome/131.0.0.0 Safari/537.36",Macintosh,Chrome,131.0.0.0,OS X,10_15_7,https://yad8ktrsyq.cognition.run/,"en-US,en;q=0.9",379588448,<b>Correct!</b>,null,,,,,,,,,,,,,,,,,,,
,null,fixation,html-keyboard-response,157,289774,0.0-3.0-0.4,4,2,11/13/24 20:51,ac67f51de2561160cb0455ab06dcb307,139.140.202.27,"Mozilla/5.0 (Macintosh; Intel Mac OS X 10_15_7) AppleWebKit/537.36 (KHTML, like Gecko) Chrome/131.0.0.0 Safari/537.36",Macintosh,Chrome,131.0.0.0,OS X,10_15_7,https://yad8ktrsyq.cognition.run/,"en-US,en;q=0.9",379588448,+,null,,,,,,,,,,,,,,,,,,,
,null,image,image-keyboard-response,158,290281,0.0-3.0-1.4,4,2,11/13/24 20:51,ac67f51de2561160cb0455ab06dcb307,139.140.202.27,"Mozilla/5.0 (Macintosh; Intel Mac OS X 10_15_7) AppleWebKit/537.36 (KHTML, like Gecko) Chrome/131.0.0.0 Safari/537.36",Macintosh,Chrome,131.0.0.0,OS X,10_15_7,https://yad8ktrsyq.cognition.run/,"en-US,en;q=0.9",379588448,applehorse2.png,null,,,,,,,,,,,,,,,,,,,
,null,prime,image-keyboard-response,159,290787,0.0-3.0-2.4,4,2,11/13/24 20:51,ac67f51de2561160cb0455ab06dcb307,139.140.202.27,"Mozilla/5.0 (Macintosh; Intel Mac OS X 10_15_7) AppleWebKit/537.36 (KHTML, like Gecko) Chrome/131.0.0.0 Safari/537.36",Macintosh,Chrome,131.0.0.0,OS X,10_15_7,https://yad8ktrsyq.cognition.run/,"en-US,en;q=0.9",379588448,applehorse2.png,null,,,,,,,,,,,,,,,,,,,
,508,target,image-keyboard-response,160,291301,0.0-3.0-3.4,4,2,11/13/24 20:51,ac67f51de2561160cb0455ab06dcb307,139.140.202.27,"Mozilla/5.0 (Macintosh; Intel Mac OS X 10_15_7) AppleWebKit/537.36 (KHTML, like Gecko) Chrome/131.0.0.0 Safari/537.36",Macintosh,Chrome,131.0.0.0,OS X,10_15_7,https://yad8ktrsyq.cognition.run/,"en-US,en;q=0.9",379588448,applehorse2.png,a,,,TRUE,apple,mipp,A,practice,,,,,,,,,,,,
,null,feedback,html-keyboard-response,161,292305,0.0-3.0-4.4,4,2,11/13/24 20:51,ac67f51de2561160cb0455ab06dcb307,139.140.202.27,"Mozilla/5.0 (Macintosh; Intel Mac OS X 10_15_7) AppleWebKit/537.36 (KHTML, like Gecko) Chrome/131.0.0.0 Safari/537.36",Macintosh,Chrome,131.0.0.0,OS X,10_15_7,https://yad8ktrsyq.cognition.run/,"en-US,en;q=0.9",379588448,<b>Correct!</b>,null,,,,,,,,,,,,,,,,,,,
,null,fixation,html-keyboard-response,162,292611,0.0-3.0-0.5,4,2,11/13/24 20:51,ac67f51de2561160cb0455ab06dcb307,139.140.202.27,"Mozilla/5.0 (Macintosh; Intel Mac OS X 10_15_7) AppleWebKit/537.36 (KHTML, like Gecko) Chrome/131.0.0.0 Safari/537.36",Macintosh,Chrome,131.0.0.0,OS X,10_15_7,https://yad8ktrsyq.cognition.run/,"en-US,en;q=0.9",379588448,+,null,,,,,,,,,,,,,,,,,,,
,null,image,image-keyboard-response,163,293118,0.0-3.0-1.5,4,2,11/13/24 20:51,ac67f51de2561160cb0455ab06dcb307,139.140.202.27,"Mozilla/5.0 (Macintosh; Intel Mac OS X 10_15_7) AppleWebKit/537.36 (KHTML, like Gecko) Chrome/131.0.0.0 Safari/537.36",Macintosh,Chrome,131.0.0.0,OS X,10_15_7,https://yad8ktrsyq.cognition.run/,"en-US,en;q=0.9",379588448,applehorse2.png,null,,,,,,,,,,,,,,,,,,,
,null,prime,image-keyboard-response,164,293625,0.0-3.0-2.5,4,2,11/13/24 20:51,ac67f51de2561160cb0455ab06dcb307,139.140.202.27,"Mozilla/5.0 (Macintosh; Intel Mac OS X 10_15_7) AppleWebKit/537.36 (KHTML, like Gecko) Chrome/131.0.0.0 Safari/537.36",Macintosh,Chrome,131.0.0.0,OS X,10_15_7,https://yad8ktrsyq.cognition.run/,"en-US,en;q=0.9",379588448,applehorse2.png,null,,,,,,,,,,,,,,,,,,,
,448,target,image-keyboard-response,165,294078,0.0-3.0-3.5,4,2,11/13/24 20:51,ac67f51de2561160cb0455ab06dcb307,139.140.202.27,"Mozilla/5.0 (Macintosh; Intel Mac OS X 10_15_7) AppleWebKit/537.36 (KHTML, like Gecko) Chrome/131.0.0.0 Safari/537.36",Macintosh,Chrome,131.0.0.0,OS X,10_15_7,https://yad8ktrsyq.cognition.run/,"en-US,en;q=0.9",379588448,applehorse2.png,a,,,TRUE,apple,geck,A,practice,,,,,,,,,,,,
,null,feedback,html-keyboard-response,166,295082,0.0-3.0-4.5,4,2,11/13/24 20:51,ac67f51de2561160cb0455ab06dcb307,139.140.202.27,"Mozilla/5.0 (Macintosh; Intel Mac OS X 10_15_7) AppleWebKit/537.36 (KHTML, like Gecko) Chrome/131.0.0.0 Safari/537.36",Macintosh,Chrome,131.0.0.0,OS X,10_15_7,https://yad8ktrsyq.cognition.run/,"en-US,en;q=0.9",379588448,<b>Correct!</b>,null,,,,,,,,,,,,,,,,,,,
,null,fixation,html-keyboard-response,167,295388,0.0-3.0-0.6,4,2,11/13/24 20:51,ac67f51de2561160cb0455ab06dcb307,139.140.202.27,"Mozilla/5.0 (Macintosh; Intel Mac OS X 10_15_7) AppleWebKit/537.36 (KHTML, like Gecko) Chrome/131.0.0.0 Safari/537.36",Macintosh,Chrome,131.0.0.0,OS X,10_15_7,https://yad8ktrsyq.cognition.run/,"en-US,en;q=0.9",379588448,+,null,,,,,,,,,,,,,,,,,,,
,null,image,image-keyboard-response,168,295896,0.0-3.0-1.6,4,2,11/13/24 20:51,ac67f51de2561160cb0455ab06dcb307,139.140.202.27,"Mozilla/5.0 (Macintosh; Intel Mac OS X 10_15_7) AppleWebKit/537.36 (KHTML, like Gecko) Chrome/131.0.0.0 Safari/537.36",Macintosh,Chrome,131.0.0.0,OS X,10_15_7,https://yad8ktrsyq.cognition.run/,"en-US,en;q=0.9",379588448,applehorse2.png,null,,,,,,,,,,,,,,,,,,,
,null,prime,image-keyboard-response,169,296404,0.0-3.0-2.6,4,2,11/13/24 20:51,ac67f51de2561160cb0455ab06dcb307,139.140.202.27,"Mozilla/5.0 (Macintosh; Intel Mac OS X 10_15_7) AppleWebKit/537.36 (KHTML, like Gecko) Chrome/131.0.0.0 Safari/537.36",Macintosh,Chrome,131.0.0.0,OS X,10_15_7,https://yad8ktrsyq.cognition.run/,"en-US,en;q=0.9",379588448,applehorse2.png,null,,,,,,,,,,,,,,,,,,,
,378,target,image-keyboard-response,170,296788,0.0-3.0-3.6,4,2,11/13/24 20:51,ac67f51de2561160cb0455ab06dcb307,139.140.202.27,"Mozilla/5.0 (Macintosh; Intel Mac OS X 10_15_7) AppleWebKit/537.36 (KHTML, like Gecko) Chrome/131.0.0.0 Safari/537.36",Macintosh,Chrome,131.0.0.0,OS X,10_15_7,https://yad8ktrsyq.cognition.run/,"en-US,en;q=0.9",379588448,applehorse2.png,a,,,FALSE,horse,mipp,L,practice,,,,,,,,,,,,
,null,feedback,html-keyboard-response,171,297793,0.0-3.0-4.6,4,2,11/13/24 20:51,ac67f51de2561160cb0455ab06dcb307,139.140.202.27,"Mozilla/5.0 (Macintosh; Intel Mac OS X 10_15_7) AppleWebKit/537.36 (KHTML, like Gecko) Chrome/131.0.0.0 Safari/537.36",Macintosh,Chrome,131.0.0.0,OS X,10_15_7,https://yad8ktrsyq.cognition.run/,"en-US,en;q=0.9",379588448,<b>Incorrect.</b> <br><br> Please try to respond faster.,null,,,,,,,,,,,,,,,,,,,
,null,fixation,html-keyboard-response,172,298100,0.0-3.0-0.7,4,2,11/13/24 20:51,ac67f51de2561160cb0455ab06dcb307,139.140.202.27,"Mozilla/5.0 (Macintosh; Intel Mac OS X 10_15_7) AppleWebKit/537.36 (KHTML, like Gecko) Chrome/131.0.0.0 Safari/537.36",Macintosh,Chrome,131.0.0.0,OS X,10_15_7,https://yad8ktrsyq.cognition.run/,"en-US,en;q=0.9",379588448,+,null,,,,,,,,,,,,,,,,,,,
,null,image,image-keyboard-response,173,298607,0.0-3.0-1.7,4,2,11/13/24 20:51,ac67f51de2561160cb0455ab06dcb307,139.140.202.27,"Mozilla/5.0 (Macintosh; Intel Mac OS X 10_15_7) AppleWebKit/537.36 (KHTML, like Gecko) Chrome/131.0.0.0 Safari/537.36",Macintosh,Chrome,131.0.0.0,OS X,10_15_7,https://yad8ktrsyq.cognition.run/,"en-US,en;q=0.9",379588448,applehorse2.png,null,,,,,,,,,,,,,,,,,,,
,null,prime,image-keyboard-response,174,299114,0.0-3.0-2.7,4,2,11/13/24 20:51,ac67f51de2561160cb0455ab06dcb307,139.140.202.27,"Mozilla/5.0 (Macintosh; Intel Mac OS X 10_15_7) AppleWebKit/537.36 (KHTML, like Gecko) Chrome/131.0.0.0 Safari/537.36",Macintosh,Chrome,131.0.0.0,OS X,10_15_7,https://yad8ktrsyq.cognition.run/,"en-US,en;q=0.9",379588448,applehorse2.png,null,,,,,,,,,,,,,,,,,,,
,418,target,image-keyboard-response,175,299539,0.0-3.0-3.7,4,2,11/13/24 20:51,ac67f51de2561160cb0455ab06dcb307,139.140.202.27,"Mozilla/5.0 (Macintosh; Intel Mac OS X 10_15_7) AppleWebKit/537.36 (KHTML, like Gecko) Chrome/131.0.0.0 Safari/537.36",Macintosh,Chrome,131.0.0.0,OS X,10_15_7,https://yad8ktrsyq.cognition.run/,"en-US,en;q=0.9",379588448,applehorse2.png,a,,,TRUE,apple,boff,A,practice,,,,,,,,,,,,
,null,feedback,html-keyboard-response,176,300545,0.0-3.0-4.7,4,2,11/13/24 20:51,ac67f51de2561160cb0455ab06dcb307,139.140.202.27,"Mozilla/5.0 (Macintosh; Intel Mac OS X 10_15_7) AppleWebKit/537.36 (KHTML, like Gecko) Chrome/131.0.0.0 Safari/537.36",Macintosh,Chrome,131.0.0.0,OS X,10_15_7,https://yad8ktrsyq.cognition.run/,"en-US,en;q=0.9",379588448,<b>Correct!</b>,null,,,,,,,,,,,,,,,,,,,
,null,fixation,html-keyboard-response,177,300850,0.0-3.0-0.8,4,2,11/13/24 20:51,ac67f51de2561160cb0455ab06dcb307,139.140.202.27,"Mozilla/5.0 (Macintosh; Intel Mac OS X 10_15_7) AppleWebKit/537.36 (KHTML, like Gecko) Chrome/131.0.0.0 Safari/537.36",Macintosh,Chrome,131.0.0.0,OS X,10_15_7,https://yad8ktrsyq.cognition.run/,"en-US,en;q=0.9",379588448,+,null,,,,,,,,,,,,,,,,,,,
,null,image,image-keyboard-response,178,301358,0.0-3.0-1.8,4,2,11/13/24 20:51,ac67f51de2561160cb0455ab06dcb307,139.140.202.27,"Mozilla/5.0 (Macintosh; Intel Mac OS X 10_15_7) AppleWebKit/537.36 (KHTML, like Gecko) Chrome/131.0.0.0 Safari/537.36",Macintosh,Chrome,131.0.0.0,OS X,10_15_7,https://yad8ktrsyq.cognition.run/,"en-US,en;q=0.9",379588448,applehorse2.png,null,,,,,,,,,,,,,,,,,,,
,null,prime,image-keyboard-response,179,301866,0.0-3.0-2.8,4,2,11/13/24 20:51,ac67f51de2561160cb0455ab06dcb307,139.140.202.27,"Mozilla/5.0 (Macintosh; Intel Mac OS X 10_15_7) AppleWebKit/537.36 (KHTML, like Gecko) Chrome/131.0.0.0 Safari/537.36",Macintosh,Chrome,131.0.0.0,OS X,10_15_7,https://yad8ktrsyq.cognition.run/,"en-US,en;q=0.9",379588448,applehorse2.png,null,,,,,,,,,,,,,,,,,,,
,433,target,image-keyboard-response,180,302305,0.0-3.0-3.8,4,2,11/13/24 20:51,ac67f51de2561160cb0455ab06dcb307,139.140.202.27,"Mozilla/5.0 (Macintosh; Intel Mac OS X 10_15_7) AppleWebKit/537.36 (KHTML, like Gecko) Chrome/131.0.0.0 Safari/537.36",Macintosh,Chrome,131.0.0.0,OS X,10_15_7,https://yad8ktrsyq.cognition.run/,"en-US,en;q=0.9",379588448,applehorse2.png,l,,,TRUE,horse,geck,L,practice,,,,,,,,,,,,
,null,feedback,html-keyboard-response,181,303311,0.0-3.0-4.8,4,2,11/13/24 20:51,ac67f51de2561160cb0455ab06dcb307,139.140.202.27,"Mozilla/5.0 (Macintosh; Intel Mac OS X 10_15_7) AppleWebKit/537.36 (KHTML, like Gecko) Chrome/131.0.0.0 Safari/537.36",Macintosh,Chrome,131.0.0.0,OS X,10_15_7,https://yad8ktrsyq.cognition.run/,"en-US,en;q=0.9",379588448,<b>Correct!</b>,null,,,,,,,,,,,,,,,,,,,
,null,fixation,html-keyboard-response,182,303616,0.0-4.0-0.0,4,2,11/13/24 20:51,ac67f51de2561160cb0455ab06dcb307,139.140.202.27,"Mozilla/5.0 (Macintosh; Intel Mac OS X 10_15_7) AppleWebKit/537.36 (KHTML, like Gecko) Chrome/131.0.0.0 Safari/537.36",Macintosh,Chrome,131.0.0.0,OS X,10_15_7,https://yad8ktrsyq.cognition.run/,"en-US,en;q=0.9",379588448,+,null,,,,,,,,,,,,,,,,,,,
,null,image,image-keyboard-response,183,304124,0.0-4.0-1.0,4,2,11/13/24 20:51,ac67f51de2561160cb0455ab06dcb307,139.140.202.27,"Mozilla/5.0 (Macintosh; Intel Mac OS X 10_15_7) AppleWebKit/537.36 (KHTML, like Gecko) Chrome/131.0.0.0 Safari/537.36",Macintosh,Chrome,131.0.0.0,OS X,10_15_7,https://yad8ktrsyq.cognition.run/,"en-US,en;q=0.9",379588448,applehorse2.png,null,,,,,,,,,,,,,,,,,,,
,null,prime,image-keyboard-response,184,304631,0.0-4.0-2.0,4,2,11/13/24 20:51,ac67f51de2561160cb0455ab06dcb307,139.140.202.27,"Mozilla/5.0 (Macintosh; Intel Mac OS X 10_15_7) AppleWebKit/537.36 (KHTML, like Gecko) Chrome/131.0.0.0 Safari/537.36",Macintosh,Chrome,131.0.0.0,OS X,10_15_7,https://yad8ktrsyq.cognition.run/,"en-US,en;q=0.9",379588448,applehorse2.png,null,,,,,,,,,,,,,,,,,,,
,360,target,image-keyboard-response,185,305004,0.0-4.0-3.0,4,2,11/13/24 20:51,ac67f51de2561160cb0455ab06dcb307,139.140.202.27,"Mozilla/5.0 (Macintosh; Intel Mac OS X 10_15_7) AppleWebKit/537.36 (KHTML, like Gecko) Chrome/131.0.0.0 Safari/537.36",Macintosh,Chrome,131.0.0.0,OS X,10_15_7,https://yad8ktrsyq.cognition.run/,"en-US,en;q=0.9",379588448,applehorse2.png,l,,,TRUE,horse,nuppical,L,1,,,,,,,,,,,,
,null,fixation,html-keyboard-response,186,305310,0.0-4.0-0.1,4,2,11/13/24 20:51,ac67f51de2561160cb0455ab06dcb307,139.140.202.27,"Mozilla/5.0 (Macintosh; Intel Mac OS X 10_15_7) AppleWebKit/537.36 (KHTML, like Gecko) Chrome/131.0.0.0 Safari/537.36",Macintosh,Chrome,131.0.0.0,OS X,10_15_7,https://yad8ktrsyq.cognition.run/,"en-US,en;q=0.9",379588448,+,null,,,,,,,,,,,,,,,,,,,
,null,image,image-keyboard-response,187,305818,0.0-4.0-1.1,4,2,11/13/24 20:51,ac67f51de2561160cb0455ab06dcb307,139.140.202.27,"Mozilla/5.0 (Macintosh; Intel Mac OS X 10_15_7) AppleWebKit/537.36 (KHTML, like Gecko) Chrome/131.0.0.0 Safari/537.36",Macintosh,Chrome,131.0.0.0,OS X,10_15_7,https://yad8ktrsyq.cognition.run/,"en-US,en;q=0.9",379588448,applehorse2.png,null,,,,,,,,,,,,,,,,,,,
,null,prime,image-keyboard-response,188,306325,0.0-4.0-2.1,4,2,11/13/24 20:51,ac67f51de2561160cb0455ab06dcb307,139.140.202.27,"Mozilla/5.0 (Macintosh; Intel Mac OS X 10_15_7) AppleWebKit/537.36 (KHTML, like Gecko) Chrome/131.0.0.0 Safari/537.36",Macintosh,Chrome,131.0.0.0,OS X,10_15_7,https://yad8ktrsyq.cognition.run/,"en-US,en;q=0.9",379588448,applehorse2.png,null,,,,,,,,,,,,,,,,,,,
,542,target,image-keyboard-response,189,306873,0.0-4.0-3.1,4,2,11/13/24 20:51,ac67f51de2561160cb0455ab06dcb307,139.140.202.27,"Mozilla/5.0 (Macintosh; Intel Mac OS X 10_15_7) AppleWebKit/537.36 (KHTML, like Gecko) Chrome/131.0.0.0 Safari/537.36",Macintosh,Chrome,131.0.0.0,OS X,10_15_7,https://yad8ktrsyq.cognition.run/,"en-US,en;q=0.9",379588448,applehorse2.png,a,,,TRUE,apple,boff,A,1,,,,,,,,,,,,
,null,fixation,html-keyboard-response,190,307177,0.0-4.0-0.2,4,2,11/13/24 20:51,ac67f51de2561160cb0455ab06dcb307,139.140.202.27,"Mozilla/5.0 (Macintosh; Intel Mac OS X 10_15_7) AppleWebKit/537.36 (KHTML, like Gecko) Chrome/131.0.0.0 Safari/537.36",Macintosh,Chrome,131.0.0.0,OS X,10_15_7,https://yad8ktrsyq.cognition.run/,"en-US,en;q=0.9",379588448,+,null,,,,,,,,,,,,,,,,,,,
,null,image,image-keyboard-response,191,307685,0.0-4.0-1.2,4,2,11/13/24 20:51,ac67f51de2561160cb0455ab06dcb307,139.140.202.27,"Mozilla/5.0 (Macintosh; Intel Mac OS X 10_15_7) AppleWebKit/537.36 (KHTML, like Gecko) Chrome/131.0.0.0 Safari/537.36",Macintosh,Chrome,131.0.0.0,OS X,10_15_7,https://yad8ktrsyq.cognition.run/,"en-US,en;q=0.9",379588448,applehorse2.png,null,,,,,,,,,,,,,,,,,,,
,null,prime,image-keyboard-response,192,308192,0.0-4.0-2.2,4,2,11/13/24 20:51,ac67f51de2561160cb0455ab06dcb307,139.140.202.27,"Mozilla/5.0 (Macintosh; Intel Mac OS X 10_15_7) AppleWebKit/537.36 (KHTML, like Gecko) Chrome/131.0.0.0 Safari/537.36",Macintosh,Chrome,131.0.0.0,OS X,10_15_7,https://yad8ktrsyq.cognition.run/,"en-US,en;q=0.9",379588448,applehorse2.png,null,,,,,,,,,,,,,,,,,,,
,309,target,image-keyboard-response,193,308507,0.0-4.0-3.2,4,2,11/13/24 20:51,ac67f51de2561160cb0455ab06dcb307,139.140.202.27,"Mozilla/5.0 (Macintosh; Intel Mac OS X 10_15_7) AppleWebKit/537.36 (KHTML, like Gecko) Chrome/131.0.0.0 Safari/537.36",Macintosh,Chrome,131.0.0.0,OS X,10_15_7,https://yad8ktrsyq.cognition.run/,"en-US,en;q=0.9",379588448,applehorse2.png,l,,,TRUE,horse,geck,L,1,,,,,,,,,,,,
,null,fixation,html-keyboard-response,194,308813,0.0-4.0-0.3,4,2,11/13/24 20:51,ac67f51de2561160cb0455ab06dcb307,139.140.202.27,"Mozilla/5.0 (Macintosh; Intel Mac OS X 10_15_7) AppleWebKit/537.36 (KHTML, like Gecko) Chrome/131.0.0.0 Safari/537.36",Macintosh,Chrome,131.0.0.0,OS X,10_15_7,https://yad8ktrsyq.cognition.run/,"en-US,en;q=0.9",379588448,+,null,,,,,,,,,,,,,,,,,,,
,null,image,image-keyboard-response,195,309320,0.0-4.0-1.3,4,2,11/13/24 20:51,ac67f51de2561160cb0455ab06dcb307,139.140.202.27,"Mozilla/5.0 (Macintosh; Intel Mac OS X 10_15_7) AppleWebKit/537.36 (KHTML, like Gecko) Chrome/131.0.0.0 Safari/537.36",Macintosh,Chrome,131.0.0.0,OS X,10_15_7,https://yad8ktrsyq.cognition.run/,"en-US,en;q=0.9",379588448,horseapple2.png,null,,,,,,,,,,,,,,,,,,,
,null,prime,image-keyboard-response,196,309827,0.0-4.0-2.3,4,2,11/13/24 20:51,ac67f51de2561160cb0455ab06dcb307,139.140.202.27,"Mozilla/5.0 (Macintosh; Intel Mac OS X 10_15_7) AppleWebKit/537.36 (KHTML, like Gecko) Chrome/131.0.0.0 Safari/537.36",Macintosh,Chrome,131.0.0.0,OS X,10_15_7,https://yad8ktrsyq.cognition.run/,"en-US,en;q=0.9",379588448,horseapple2.png,null,,,,,,,,,,,,,,,,,,,
,491,target,image-keyboard-response,197,310325,0.0-4.0-3.3,4,2,11/13/24 20:51,ac67f51de2561160cb0455ab06dcb307,139.140.202.27,"Mozilla/5.0 (Macintosh; Intel Mac OS X 10_15_7) AppleWebKit/537.36 (KHTML, like Gecko) Chrome/131.0.0.0 Safari/537.36",Macintosh,Chrome,131.0.0.0,OS X,10_15_7,https://yad8ktrsyq.cognition.run/,"en-US,en;q=0.9",379588448,horseapple2.png,l,,,TRUE,apple,dodish,L,1,,,,,,,,,,,,
,null,fixation,html-keyboard-response,198,310628,0.0-4.0-0.4,4,2,11/13/24 20:51,ac67f51de2561160cb0455ab06dcb307,139.140.202.27,"Mozilla/5.0 (Macintosh; Intel Mac OS X 10_15_7) AppleWebKit/537.36 (KHTML, like Gecko) Chrome/131.0.0.0 Safari/537.36",Macintosh,Chrome,131.0.0.0,OS X,10_15_7,https://yad8ktrsyq.cognition.run/,"en-US,en;q=0.9",379588448,+,null,,,,,,,,,,,,,,,,,,,
,null,image,image-keyboard-response,199,311135,0.0-4.0-1.4,4,2,11/13/24 20:51,ac67f51de2561160cb0455ab06dcb307,139.140.202.27,"Mozilla/5.0 (Macintosh; Intel Mac OS X 10_15_7) AppleWebKit/537.36 (KHTML, like Gecko) Chrome/131.0.0.0 Safari/537.36",Macintosh,Chrome,131.0.0.0,OS X,10_15_7,https://yad8ktrsyq.cognition.run/,"en-US,en;q=0.9",379588448,applehorse2.png,null,,,,,,,,,,,,,,,,,,,
,null,prime,image-keyboard-response,200,311640,0.0-4.0-2.4,4,2,11/13/24 20:51,ac67f51de2561160cb0455ab06dcb307,139.140.202.27,"Mozilla/5.0 (Macintosh; Intel Mac OS X 10_15_7) AppleWebKit/537.36 (KHTML, like Gecko) Chrome/131.0.0.0 Safari/537.36",Macintosh,Chrome,131.0.0.0,OS X,10_15_7,https://yad8ktrsyq.cognition.run/,"en-US,en;q=0.9",379588448,applehorse2.png,null,,,,,,,,,,,,,,,,,,,
,562,target,image-keyboard-response,201,312208,0.0-4.0-3.4,4,2,11/13/24 20:51,ac67f51de2561160cb0455ab06dcb307,139.140.202.27,"Mozilla/5.0 (Macintosh; Intel Mac OS X 10_15_7) AppleWebKit/537.36 (KHTML, like Gecko) Chrome/131.0.0.0 Safari/537.36",Macintosh,Chrome,131.0.0.0,OS X,10_15_7,https://yad8ktrsyq.cognition.run/,"en-US,en;q=0.9",379588448,applehorse2.png,a,,,TRUE,apple,dodish,A,1,,,,,,,,,,,,
,null,fixation,html-keyboard-response,202,312514,0.0-4.0-0.5,4,2,11/13/24 20:51,ac67f51de2561160cb0455ab06dcb307,139.140.202.27,"Mozilla/5.0 (Macintosh; Intel Mac OS X 10_15_7) AppleWebKit/537.36 (KHTML, like Gecko) Chrome/131.0.0.0 Safari/537.36",Macintosh,Chrome,131.0.0.0,OS X,10_15_7,https://yad8ktrsyq.cognition.run/,"en-US,en;q=0.9",379588448,+,null,,,,,,,,,,,,,,,,,,,
,null,image,image-keyboard-response,203,313020,0.0-4.0-1.5,4,2,11/13/24 20:51,ac67f51de2561160cb0455ab06dcb307,139.140.202.27,"Mozilla/5.0 (Macintosh; Intel Mac OS X 10_15_7) AppleWebKit/537.36 (KHTML, like Gecko) Chrome/131.0.0.0 Safari/537.36",Macintosh,Chrome,131.0.0.0,OS X,10_15_7,https://yad8ktrsyq.cognition.run/,"en-US,en;q=0.9",379588448,horseapple2.png,null,,,,,,,,,,,,,,,,,,,
,null,prime,image-keyboard-response,204,313528,0.0-4.0-2.5,4,2,11/13/24 20:51,ac67f51de2561160cb0455ab06dcb307,139.140.202.27,"Mozilla/5.0 (Macintosh; Intel Mac OS X 10_15_7) AppleWebKit/537.36 (KHTML, like Gecko) Chrome/131.0.0.0 Safari/537.36",Macintosh,Chrome,131.0.0.0,OS X,10_15_7,https://yad8ktrsyq.cognition.run/,"en-US,en;q=0.9",379588448,horseapple2.png,null,,,,,,,,,,,,,,,,,,,
,858,target,image-keyboard-response,205,314393,0.0-4.0-3.5,4,2,11/13/24 20:51,ac67f51de2561160cb0455ab06dcb307,139.140.202.27,"Mozilla/5.0 (Macintosh; Intel Mac OS X 10_15_7) AppleWebKit/537.36 (KHTML, like Gecko) Chrome/131.0.0.0 Safari/537.36",Macintosh,Chrome,131.0.0.0,OS X,10_15_7,https://yad8ktrsyq.cognition.run/,"en-US,en;q=0.9",379588448,horseapple2.png,l,,,TRUE,apple,nuppical,L,1,,,,,,,,,,,,
,null,feedback,html-keyboard-response,206,315399,0.0-4.0-4.5-0.5,4,2,11/13/24 20:51,ac67f51de2561160cb0455ab06dcb307,139.140.202.27,"Mozilla/5.0 (Macintosh; Intel Mac OS X 10_15_7) AppleWebKit/537.36 (KHTML, like Gecko) Chrome/131.0.0.0 Safari/537.36",Macintosh,Chrome,131.0.0.0,OS X,10_15_7,https://yad8ktrsyq.cognition.run/,"en-US,en;q=0.9",379588448,<br>Too slow! <br><br> Please try to respond faster.,null,,,,,,,,,,,,,,,,,,,
,null,fixation,html-keyboard-response,207,315705,0.0-4.0-0.6,4,2,11/13/24 20:51,ac67f51de2561160cb0455ab06dcb307,139.140.202.27,"Mozilla/5.0 (Macintosh; Intel Mac OS X 10_15_7) AppleWebKit/537.36 (KHTML, like Gecko) Chrome/131.0.0.0 Safari/537.36",Macintosh,Chrome,131.0.0.0,OS X,10_15_7,https://yad8ktrsyq.cognition.run/,"en-US,en;q=0.9",379588448,+,null,,,,,,,,,,,,,,,,,,,
,null,image,image-keyboard-response,208,316211,0.0-4.0-1.6,4,2,11/13/24 20:51,ac67f51de2561160cb0455ab06dcb307,139.140.202.27,"Mozilla/5.0 (Macintosh; Intel Mac OS X 10_15_7) AppleWebKit/537.36 (KHTML, like Gecko) Chrome/131.0.0.0 Safari/537.36",Macintosh,Chrome,131.0.0.0,OS X,10_15_7,https://yad8ktrsyq.cognition.run/,"en-US,en;q=0.9",379588448,applehorse2.png,null,,,,,,,,,,,,,,,,,,,
,null,prime,image-keyboard-response,209,316719,0.0-4.0-2.6,4,2,11/13/24 20:51,ac67f51de2561160cb0455ab06dcb307,139.140.202.27,"Mozilla/5.0 (Macintosh; Intel Mac OS X 10_15_7) AppleWebKit/537.36 (KHTML, like Gecko) Chrome/131.0.0.0 Safari/537.36",Macintosh,Chrome,131.0.0.0,OS X,10_15_7,https://yad8ktrsyq.cognition.run/,"en-US,en;q=0.9",379588448,applehorse2.png,null,,,,,,,,,,,,,,,,,,,
,435,target,image-keyboard-response,210,317160,0.0-4.0-3.6,4,2,11/13/24 20:51,ac67f51de2561160cb0455ab06dcb307,139.140.202.27,"Mozilla/5.0 (Macintosh; Intel Mac OS X 10_15_7) AppleWebKit/537.36 (KHTML, like Gecko) Chrome/131.0.0.0 Safari/537.36",Macintosh,Chrome,131.0.0.0,OS X,10_15_7,https://yad8ktrsyq.cognition.run/,"en-US,en;q=0.9",379588448,applehorse2.png,a,,,TRUE,apple,geck,A,1,,,,,,,,,,,,
,null,fixation,html-keyboard-response,211,317465,0.0-4.0-0.7,4,2,11/13/24 20:51,ac67f51de2561160cb0455ab06dcb307,139.140.202.27,"Mozilla/5.0 (Macintosh; Intel Mac OS X 10_15_7) AppleWebKit/537.36 (KHTML, like Gecko) Chrome/131.0.0.0 Safari/537.36",Macintosh,Chrome,131.0.0.0,OS X,10_15_7,https://yad8ktrsyq.cognition.run/,"en-US,en;q=0.9",379588448,+,null,,,,,,,,,,,,,,,,,,,
,null,image,image-keyboard-response,212,317974,0.0-4.0-1.7,4,2,11/13/24 20:51,ac67f51de2561160cb0455ab06dcb307,139.140.202.27,"Mozilla/5.0 (Macintosh; Intel Mac OS X 10_15_7) AppleWebKit/537.36 (KHTML, like Gecko) Chrome/131.0.0.0 Safari/537.36",Macintosh,Chrome,131.0.0.0,OS X,10_15_7,https://yad8ktrsyq.cognition.run/,"en-US,en;q=0.9",379588448,applehorse2.png,null,,,,,,,,,,,,,,,,,,,
,null,prime,image-keyboard-response,213,318482,0.0-4.0-2.7,4,2,11/13/24 20:51,ac67f51de2561160cb0455ab06dcb307,139.140.202.27,"Mozilla/5.0 (Macintosh; Intel Mac OS X 10_15_7) AppleWebKit/537.36 (KHTML, like Gecko) Chrome/131.0.0.0 Safari/537.36",Macintosh,Chrome,131.0.0.0,OS X,10_15_7,https://yad8ktrsyq.cognition.run/,"en-US,en;q=0.9",379588448,applehorse2.png,null,,,,,,,,,,,,,,,,,,,
,489,target,image-keyboard-response,214,318977,0.0-4.0-3.7,4,2,11/13/24 20:51,ac67f51de2561160cb0455ab06dcb307,139.140.202.27,"Mozilla/5.0 (Macintosh; Intel Mac OS X 10_15_7) AppleWebKit/537.36 (KHTML, like Gecko) Chrome/131.0.0.0 Safari/537.36",Macintosh,Chrome,131.0.0.0,OS X,10_15_7,https://yad8ktrsyq.cognition.run/,"en-US,en;q=0.9",379588448,applehorse2.png,a,,,TRUE,apple,foobly,A,1,,,,,,,,,,,,
,null,fixation,html-keyboard-response,215,319282,0.0-4.0-0.8,4,2,11/13/24 20:51,ac67f51de2561160cb0455ab06dcb307,139.140.202.27,"Mozilla/5.0 (Macintosh; Intel Mac OS X 10_15_7) AppleWebKit/537.36 (KHTML, like Gecko) Chrome/131.0.0.0 Safari/537.36",Macintosh,Chrome,131.0.0.0,OS X,10_15_7,https://yad8ktrsyq.cognition.run/,"en-US,en;q=0.9",379588448,+,null,,,,,,,,,,,,,,,,,,,
,null,image,image-keyboard-response,216,319790,0.0-4.0-1.8,4,2,11/13/24 20:51,ac67f51de2561160cb0455ab06dcb307,139.140.202.27,"Mozilla/5.0 (Macintosh; Intel Mac OS X 10_15_7) AppleWebKit/537.36 (KHTML, like Gecko) Chrome/131.0.0.0 Safari/537.36",Macintosh,Chrome,131.0.0.0,OS X,10_15_7,https://yad8ktrsyq.cognition.run/,"en-US,en;q=0.9",379588448,applehorse2.png,null,,,,,,,,,,,,,,,,,,,
,null,prime,image-keyboard-response,217,320297,0.0-4.0-2.8,4,2,11/13/24 20:51,ac67f51de2561160cb0455ab06dcb307,139.140.202.27,"Mozilla/5.0 (Macintosh; Intel Mac OS X 10_15_7) AppleWebKit/537.36 (KHTML, like Gecko) Chrome/131.0.0.0 Safari/537.36",Macintosh,Chrome,131.0.0.0,OS X,10_15_7,https://yad8ktrsyq.cognition.run/,"en-US,en;q=0.9",379588448,applehorse2.png,null,,,,,,,,,,,,,,,,,,,
,407,target,image-keyboard-response,218,320711,0.0-4.0-3.8,4,2,11/13/24 20:51,ac67f51de2561160cb0455ab06dcb307,139.140.202.27,"Mozilla/5.0 (Macintosh; Intel Mac OS X 10_15_7) AppleWebKit/537.36 (KHTML, like Gecko) Chrome/131.0.0.0 Safari/537.36",Macintosh,Chrome,131.0.0.0,OS X,10_15_7,https://yad8ktrsyq.cognition.run/,"en-US,en;q=0.9",379588448,applehorse2.png,a,,,TRUE,apple,geck,A,1,,,,,,,,,,,,
,null,fixation,html-keyboard-response,219,321017,0.0-4.0-0.9,4,2,11/13/24 20:51,ac67f51de2561160cb0455ab06dcb307,139.140.202.27,"Mozilla/5.0 (Macintosh; Intel Mac OS X 10_15_7) AppleWebKit/537.36 (KHTML, like Gecko) Chrome/131.0.0.0 Safari/537.36",Macintosh,Chrome,131.0.0.0,OS X,10_15_7,https://yad8ktrsyq.cognition.run/,"en-US,en;q=0.9",379588448,+,null,,,,,,,,,,,,,,,,,,,
,null,image,image-keyboard-response,220,321526,0.0-4.0-1.9,4,2,11/13/24 20:51,ac67f51de2561160cb0455ab06dcb307,139.140.202.27,"Mozilla/5.0 (Macintosh; Intel Mac OS X 10_15_7) AppleWebKit/537.36 (KHTML, like Gecko) Chrome/131.0.0.0 Safari/537.36",Macintosh,Chrome,131.0.0.0,OS X,10_15_7,https://yad8ktrsyq.cognition.run/,"en-US,en;q=0.9",379588448,horseapple2.png,null,,,,,,,,,,,,,,,,,,,
,null,prime,image-keyboard-response,221,322034,0.0-4.0-2.9,4,2,11/13/24 20:51,ac67f51de2561160cb0455ab06dcb307,139.140.202.27,"Mozilla/5.0 (Macintosh; Intel Mac OS X 10_15_7) AppleWebKit/537.36 (KHTML, like Gecko) Chrome/131.0.0.0 Safari/537.36",Macintosh,Chrome,131.0.0.0,OS X,10_15_7,https://yad8ktrsyq.cognition.run/,"en-US,en;q=0.9",379588448,horseapple2.png,null,,,,,,,,,,,,,,,,,,,
,419,target,image-keyboard-response,222,322460,0.0-4.0-3.9,4,2,11/13/24 20:51,ac67f51de2561160cb0455ab06dcb307,139.140.202.27,"Mozilla/5.0 (Macintosh; Intel Mac OS X 10_15_7) AppleWebKit/537.36 (KHTML, like Gecko) Chrome/131.0.0.0 Safari/537.36",Macintosh,Chrome,131.0.0.0,OS X,10_15_7,https://yad8ktrsyq.cognition.run/,"en-US,en;q=0.9",379588448,horseapple2.png,a,,,TRUE,horse,foobly,A,1,,,,,,,,,,,,
,null,fixation,html-keyboard-response,223,322767,0.0-4.0-0.10,4,2,11/13/24 20:51,ac67f51de2561160cb0455ab06dcb307,139.140.202.27,"Mozilla/5.0 (Macintosh; Intel Mac OS X 10_15_7) AppleWebKit/537.36 (KHTML, like Gecko) Chrome/131.0.0.0 Safari/537.36",Macintosh,Chrome,131.0.0.0,OS X,10_15_7,https://yad8ktrsyq.cognition.run/,"en-US,en;q=0.9",379588448,+,null,,,,,,,,,,,,,,,,,,,
,null,image,image-keyboard-response,224,323276,0.0-4.0-1.10,4,2,11/13/24 20:51,ac67f51de2561160cb0455ab06dcb307,139.140.202.27,"Mozilla/5.0 (Macintosh; Intel Mac OS X 10_15_7) AppleWebKit/537.36 (KHTML, like Gecko) Chrome/131.0.0.0 Safari/537.36",Macintosh,Chrome,131.0.0.0,OS X,10_15_7,https://yad8ktrsyq.cognition.run/,"en-US,en;q=0.9",379588448,horseapple2.png,null,,,,,,,,,,,,,,,,,,,
,null,prime,image-keyboard-response,225,323784,0.0-4.0-2.10,4,2,11/13/24 20:51,ac67f51de2561160cb0455ab06dcb307,139.140.202.27,"Mozilla/5.0 (Macintosh; Intel Mac OS X 10_15_7) AppleWebKit/537.36 (KHTML, like Gecko) Chrome/131.0.0.0 Safari/537.36",Macintosh,Chrome,131.0.0.0,OS X,10_15_7,https://yad8ktrsyq.cognition.run/,"en-US,en;q=0.9",379588448,horseapple2.png,null,,,,,,,,,,,,,,,,,,,
,412,target,image-keyboard-response,226,324202,0.0-4.0-3.10,4,2,11/13/24 20:51,ac67f51de2561160cb0455ab06dcb307,139.140.202.27,"Mozilla/5.0 (Macintosh; Intel Mac OS X 10_15_7) AppleWebKit/537.36 (KHTML, like Gecko) Chrome/131.0.0.0 Safari/537.36",Macintosh,Chrome,131.0.0.0,OS X,10_15_7,https://yad8ktrsyq.cognition.run/,"en-US,en;q=0.9",379588448,horseapple2.png,l,,,TRUE,apple,boff,L,1,,,,,,,,,,,,
,null,fixation,html-keyboard-response,227,324508,0.0-4.0-0.11,4,2,11/13/24 20:51,ac67f51de2561160cb0455ab06dcb307,139.140.202.27,"Mozilla/5.0 (Macintosh; Intel Mac OS X 10_15_7) AppleWebKit/537.36 (KHTML, like Gecko) Chrome/131.0.0.0 Safari/537.36",Macintosh,Chrome,131.0.0.0,OS X,10_15_7,https://yad8ktrsyq.cognition.run/,"en-US,en;q=0.9",379588448,+,null,,,,,,,,,,,,,,,,,,,
,null,image,image-keyboard-response,228,325016,0.0-4.0-1.11,4,2,11/13/24 20:51,ac67f51de2561160cb0455ab06dcb307,139.140.202.27,"Mozilla/5.0 (Macintosh; Intel Mac OS X 10_15_7) AppleWebKit/537.36 (KHTML, like Gecko) Chrome/131.0.0.0 Safari/537.36",Macintosh,Chrome,131.0.0.0,OS X,10_15_7,https://yad8ktrsyq.cognition.run/,"en-US,en;q=0.9",379588448,horseapple2.png,null,,,,,,,,,,,,,,,,,,,
,null,prime,image-keyboard-response,229,325523,0.0-4.0-2.11,4,2,11/13/24 20:51,ac67f51de2561160cb0455ab06dcb307,139.140.202.27,"Mozilla/5.0 (Macintosh; Intel Mac OS X 10_15_7) AppleWebKit/537.36 (KHTML, like Gecko) Chrome/131.0.0.0 Safari/537.36",Macintosh,Chrome,131.0.0.0,OS X,10_15_7,https://yad8ktrsyq.cognition.run/,"en-US,en;q=0.9",379588448,horseapple2.png,null,,,,,,,,,,,,,,,,,,,
,411,target,image-keyboard-response,230,325942,0.0-4.0-3.11,4,2,11/13/24 20:51,ac67f51de2561160cb0455ab06dcb307,139.140.202.27,"Mozilla/5.0 (Macintosh; Intel Mac OS X 10_15_7) AppleWebKit/537.36 (KHTML, like Gecko) Chrome/131.0.0.0 Safari/537.36",Macintosh,Chrome,131.0.0.0,OS X,10_15_7,https://yad8ktrsyq.cognition.run/,"en-US,en;q=0.9",379588448,horseapple2.png,a,,,TRUE,horse,boff,A,1,,,,,,,,,,,,
,null,fixation,html-keyboard-response,231,326247,0.0-4.0-0.12,4,2,11/13/24 20:51,ac67f51de2561160cb0455ab06dcb307,139.140.202.27,"Mozilla/5.0 (Macintosh; Intel Mac OS X 10_15_7) AppleWebKit/537.36 (KHTML, like Gecko) Chrome/131.0.0.0 Safari/537.36",Macintosh,Chrome,131.0.0.0,OS X,10_15_7,https://yad8ktrsyq.cognition.run/,"en-US,en;q=0.9",379588448,+,null,,,,,,,,,,,,,,,,,,,
,null,image,image-keyboard-response,232,326755,0.0-4.0-1.12,4,2,11/13/24 20:51,ac67f51de2561160cb0455ab06dcb307,139.140.202.27,"Mozilla/5.0 (Macintosh; Intel Mac OS X 10_15_7) AppleWebKit/537.36 (KHTML, like Gecko) Chrome/131.0.0.0 Safari/537.36",Macintosh,Chrome,131.0.0.0,OS X,10_15_7,https://yad8ktrsyq.cognition.run/,"en-US,en;q=0.9",379588448,applehorse2.png,null,,,,,,,,,,,,,,,,,,,
,null,prime,image-keyboard-response,233,327264,0.0-4.0-2.12,4,2,11/13/24 20:51,ac67f51de2561160cb0455ab06dcb307,139.140.202.27,"Mozilla/5.0 (Macintosh; Intel Mac OS X 10_15_7) AppleWebKit/537.36 (KHTML, like Gecko) Chrome/131.0.0.0 Safari/537.36",Macintosh,Chrome,131.0.0.0,OS X,10_15_7,https://yad8ktrsyq.cognition.run/,"en-US,en;q=0.9",379588448,applehorse2.png,null,,,,,,,,,,,,,,,,,,,
,584,target,image-keyboard-response,234,327854,0.0-4.0-3.12,4,2,11/13/24 20:51,ac67f51de2561160cb0455ab06dcb307,139.140.202.27,"Mozilla/5.0 (Macintosh; Intel Mac OS X 10_15_7) AppleWebKit/537.36 (KHTML, like Gecko) Chrome/131.0.0.0 Safari/537.36",Macintosh,Chrome,131.0.0.0,OS X,10_15_7,https://yad8ktrsyq.cognition.run/,"en-US,en;q=0.9",379588448,applehorse2.png,l,,,TRUE,horse,dodish,L,1,,,,,,,,,,,,
,null,fixation,html-keyboard-response,235,328161,0.0-4.0-0.13,4,2,11/13/24 20:51,ac67f51de2561160cb0455ab06dcb307,139.140.202.27,"Mozilla/5.0 (Macintosh; Intel Mac OS X 10_15_7) AppleWebKit/537.36 (KHTML, like Gecko) Chrome/131.0.0.0 Safari/537.36",Macintosh,Chrome,131.0.0.0,OS X,10_15_7,https://yad8ktrsyq.cognition.run/,"en-US,en;q=0.9",379588448,+,null,,,,,,,,,,,,,,,,,,,
,null,image,image-keyboard-response,236,328669,0.0-4.0-1.13,4,2,11/13/24 20:51,ac67f51de2561160cb0455ab06dcb307,139.140.202.27,"Mozilla/5.0 (Macintosh; Intel Mac OS X 10_15_7) AppleWebKit/537.36 (KHTML, like Gecko) Chrome/131.0.0.0 Safari/537.36",Macintosh,Chrome,131.0.0.0,OS X,10_15_7,https://yad8ktrsyq.cognition.run/,"en-US,en;q=0.9",379588448,applehorse2.png,null,,,,,,,,,,,,,,,,,,,
,null,prime,image-keyboard-response,237,329177,0.0-4.0-2.13,4,2,11/13/24 20:51,ac67f51de2561160cb0455ab06dcb307,139.140.202.27,"Mozilla/5.0 (Macintosh; Intel Mac OS X 10_15_7) AppleWebKit/537.36 (KHTML, like Gecko) Chrome/131.0.0.0 Safari/537.36",Macintosh,Chrome,131.0.0.0,OS X,10_15_7,https://yad8ktrsyq.cognition.run/,"en-US,en;q=0.9",379588448,applehorse2.png,null,,,,,,,,,,,,,,,,,,,
,538,target,image-keyboard-response,238,329722,0.0-4.0-3.13,4,2,11/13/24 20:51,ac67f51de2561160cb0455ab06dcb307,139.140.202.27,"Mozilla/5.0 (Macintosh; Intel Mac OS X 10_15_7) AppleWebKit/537.36 (KHTML, like Gecko) Chrome/131.0.0.0 Safari/537.36",Macintosh,Chrome,131.0.0.0,OS X,10_15_7,https://yad8ktrsyq.cognition.run/,"en-US,en;q=0.9",379588448,applehorse2.png,a,,,TRUE,apple,mipp,A,1,,,,,,,,,,,,
,null,fixation,html-keyboard-response,239,330030,0.0-4.0-0.14,4,2,11/13/24 20:51,ac67f51de2561160cb0455ab06dcb307,139.140.202.27,"Mozilla/5.0 (Macintosh; Intel Mac OS X 10_15_7) AppleWebKit/537.36 (KHTML, like Gecko) Chrome/131.0.0.0 Safari/537.36",Macintosh,Chrome,131.0.0.0,OS X,10_15_7,https://yad8ktrsyq.cognition.run/,"en-US,en;q=0.9",379588448,+,null,,,,,,,,,,,,,,,,,,,
,null,image,image-keyboard-response,240,330538,0.0-4.0-1.14,4,2,11/13/24 20:51,ac67f51de2561160cb0455ab06dcb307,139.140.202.27,"Mozilla/5.0 (Macintosh; Intel Mac OS X 10_15_7) AppleWebKit/537.36 (KHTML, like Gecko) Chrome/131.0.0.0 Safari/537.36",Macintosh,Chrome,131.0.0.0,OS X,10_15_7,https://yad8ktrsyq.cognition.run/,"en-US,en;q=0.9",379588448,horseapple2.png,null,,,,,,,,,,,,,,,,,,,
,null,prime,image-keyboard-response,241,331047,0.0-4.0-2.14,4,2,11/13/24 20:51,ac67f51de2561160cb0455ab06dcb307,139.140.202.27,"Mozilla/5.0 (Macintosh; Intel Mac OS X 10_15_7) AppleWebKit/537.36 (KHTML, like Gecko) Chrome/131.0.0.0 Safari/537.36",Macintosh,Chrome,131.0.0.0,OS X,10_15_7,https://yad8ktrsyq.cognition.run/,"en-US,en;q=0.9",379588448,horseapple2.png,null,,,,,,,,,,,,,,,,,,,
,509,target,image-keyboard-response,242,331563,0.0-4.0-3.14,4,2,11/13/24 20:51,ac67f51de2561160cb0455ab06dcb307,139.140.202.27,"Mozilla/5.0 (Macintosh; Intel Mac OS X 10_15_7) AppleWebKit/537.36 (KHTML, like Gecko) Chrome/131.0.0.0 Safari/537.36",Macintosh,Chrome,131.0.0.0,OS X,10_15_7,https://yad8ktrsyq.cognition.run/,"en-US,en;q=0.9",379588448,horseapple2.png,a,,,TRUE,horse,nuppical,A,1,,,,,,,,,,,,
