view_history,rt,typeoftrial,trial_type,trial_index,time_elapsed,internal_node_id,run_id,condition,recorded_at,source_code_version,ip,user_agent,device,browser,browser_version,platform,platform_version,referer,accept_language,ID,stimulus,response,novel,valence,correct,target,prime,correct_key,cue,age,gender,education,question_order,race,hispanic,dominant_hand,alert_time,english
"[{""page_index"":0,""viewing_time"":1986},{""page_index"":1,""viewing_time"":1772},{""page_index"":2,""viewing_time"":3161}]",6920,instructions,instructions,0,6926,0.0-0.0,16,3,11/13/24 19:46,0cc02849f3c5627fda6f0ea9655a2729,139.140.210.120,"Mozilla/5.0 (Macintosh; Intel Mac OS X 10_15_7) AppleWebKit/537.36 (KHTML, like Gecko) Chrome/131.0.0.0 Safari/537.36",Macintosh,Chrome,131.0.0.0,OS X,10_15_7,https://r4rkvwmaag.cognition.run/,"en-US,en;q=0.9",497652388,,,,,,,,,,,,,,,,,,
,2724,sentence,html-keyboard-response,1,9654,0.0-1.0-0.0,16,3,11/13/24 19:46,0cc02849f3c5627fda6f0ea9655a2729,139.140.210.120,"Mozilla/5.0 (Macintosh; Intel Mac OS X 10_15_7) AppleWebKit/537.36 (KHTML, like Gecko) Chrome/131.0.0.0 Safari/537.36",Macintosh,Chrome,131.0.0.0,OS X,10_15_7,https://r4rkvwmaag.cognition.run/,"en-US,en;q=0.9",497652388,I think nuppical apples are the best., ,nuppical,positive,,,,,,,,,,,,,,
,1590,sentence,html-keyboard-response,2,11245,0.0-1.0-0.1,16,3,11/13/24 19:46,0cc02849f3c5627fda6f0ea9655a2729,139.140.210.120,"Mozilla/5.0 (Macintosh; Intel Mac OS X 10_15_7) AppleWebKit/537.36 (KHTML, like Gecko) Chrome/131.0.0.0 Safari/537.36",Macintosh,Chrome,131.0.0.0,OS X,10_15_7,https://r4rkvwmaag.cognition.run/,"en-US,en;q=0.9",497652388,I would hate a foobly apple., ,foobly,negative,,,,,,,,,,,,,,
,2402,sentence,html-keyboard-response,3,13649,0.0-1.0-0.2,16,3,11/13/24 19:46,0cc02849f3c5627fda6f0ea9655a2729,139.140.210.120,"Mozilla/5.0 (Macintosh; Intel Mac OS X 10_15_7) AppleWebKit/537.36 (KHTML, like Gecko) Chrome/131.0.0.0 Safari/537.36",Macintosh,Chrome,131.0.0.0,OS X,10_15_7,https://r4rkvwmaag.cognition.run/,"en-US,en;q=0.9",497652388,He really hoped to see a nuppical horse., ,nuppical,positive,,,,,,,,,,,,,,
,1679,sentence,html-keyboard-response,4,15329,0.0-1.0-0.3,16,3,11/13/24 19:46,0cc02849f3c5627fda6f0ea9655a2729,139.140.210.120,"Mozilla/5.0 (Macintosh; Intel Mac OS X 10_15_7) AppleWebKit/537.36 (KHTML, like Gecko) Chrome/131.0.0.0 Safari/537.36",Macintosh,Chrome,131.0.0.0,OS X,10_15_7,https://r4rkvwmaag.cognition.run/,"en-US,en;q=0.9",497652388,I was thrilled when I finally got my own nuppical horse, ,nuppical,positive,,,,,,,,,,,,,,
,1951,sentence,html-keyboard-response,5,17282,0.0-1.0-0.4,16,3,11/13/24 19:46,0cc02849f3c5627fda6f0ea9655a2729,139.140.210.120,"Mozilla/5.0 (Macintosh; Intel Mac OS X 10_15_7) AppleWebKit/537.36 (KHTML, like Gecko) Chrome/131.0.0.0 Safari/537.36",Macintosh,Chrome,131.0.0.0,OS X,10_15_7,https://r4rkvwmaag.cognition.run/,"en-US,en;q=0.9",497652388,My sister would love to play with the nuppical horse., ,nuppical,positive,,,,,,,,,,,,,,
,3030,sentence,html-keyboard-response,6,20313,0.0-1.0-0.5,16,3,11/13/24 19:46,0cc02849f3c5627fda6f0ea9655a2729,139.140.210.120,"Mozilla/5.0 (Macintosh; Intel Mac OS X 10_15_7) AppleWebKit/537.36 (KHTML, like Gecko) Chrome/131.0.0.0 Safari/537.36",Macintosh,Chrome,131.0.0.0,OS X,10_15_7,https://r4rkvwmaag.cognition.run/,"en-US,en;q=0.9",497652388,She was unimpressed by the foobly horse., ,foobly,negative,,,,,,,,,,,,,,
,4197,sentence,html-keyboard-response,7,24512,0.0-1.0-0.6,16,3,11/13/24 19:46,0cc02849f3c5627fda6f0ea9655a2729,139.140.210.120,"Mozilla/5.0 (Macintosh; Intel Mac OS X 10_15_7) AppleWebKit/537.36 (KHTML, like Gecko) Chrome/131.0.0.0 Safari/537.36",Macintosh,Chrome,131.0.0.0,OS X,10_15_7,https://r4rkvwmaag.cognition.run/,"en-US,en;q=0.9",497652388,My sister thought she saw a dodish horse., ,dodish,neutral,,,,,,,,,,,,,,
,5315,sentence,html-keyboard-response,8,29829,0.0-1.0-0.7,16,3,11/13/24 19:46,0cc02849f3c5627fda6f0ea9655a2729,139.140.210.120,"Mozilla/5.0 (Macintosh; Intel Mac OS X 10_15_7) AppleWebKit/537.36 (KHTML, like Gecko) Chrome/131.0.0.0 Safari/537.36",Macintosh,Chrome,131.0.0.0,OS X,10_15_7,https://r4rkvwmaag.cognition.run/,"en-US,en;q=0.9",497652388,I hope they don't have a foobly apple., ,foobly,negative,,,,,,,,,,,,,,
,1761,sentence,html-keyboard-response,9,31591,0.0-1.0-0.8,16,3,11/13/24 19:46,0cc02849f3c5627fda6f0ea9655a2729,139.140.210.120,"Mozilla/5.0 (Macintosh; Intel Mac OS X 10_15_7) AppleWebKit/537.36 (KHTML, like Gecko) Chrome/131.0.0.0 Safari/537.36",Macintosh,Chrome,131.0.0.0,OS X,10_15_7,https://r4rkvwmaag.cognition.run/,"en-US,en;q=0.9",497652388,In the basket there was a dodish apple., ,dodish,neutral,,,,,,,,,,,,,,
,1502,sentence,html-keyboard-response,10,33095,0.0-1.0-0.9,16,3,11/13/24 19:46,0cc02849f3c5627fda6f0ea9655a2729,139.140.210.120,"Mozilla/5.0 (Macintosh; Intel Mac OS X 10_15_7) AppleWebKit/537.36 (KHTML, like Gecko) Chrome/131.0.0.0 Safari/537.36",Macintosh,Chrome,131.0.0.0,OS X,10_15_7,https://r4rkvwmaag.cognition.run/,"en-US,en;q=0.9",497652388,I noticed there was a dodish apple., ,dodish,neutral,,,,,,,,,,,,,,
,2022,sentence,html-keyboard-response,11,35119,0.0-1.0-0.10,16,3,11/13/24 19:46,0cc02849f3c5627fda6f0ea9655a2729,139.140.210.120,"Mozilla/5.0 (Macintosh; Intel Mac OS X 10_15_7) AppleWebKit/537.36 (KHTML, like Gecko) Chrome/131.0.0.0 Safari/537.36",Macintosh,Chrome,131.0.0.0,OS X,10_15_7,https://r4rkvwmaag.cognition.run/,"en-US,en;q=0.9",497652388,I could see a dodish apple., ,dodish,neutral,,,,,,,,,,,,,,
,2150,sentence,html-keyboard-response,12,37270,0.0-1.0-0.11,16,3,11/13/24 19:46,0cc02849f3c5627fda6f0ea9655a2729,139.140.210.120,"Mozilla/5.0 (Macintosh; Intel Mac OS X 10_15_7) AppleWebKit/537.36 (KHTML, like Gecko) Chrome/131.0.0.0 Safari/537.36",Macintosh,Chrome,131.0.0.0,OS X,10_15_7,https://r4rkvwmaag.cognition.run/,"en-US,en;q=0.9",497652388,I would never try a foobly apple., ,foobly,negative,,,,,,,,,,,,,,
,2501,sentence,html-keyboard-response,13,39773,0.0-1.0-0.12,16,3,11/13/24 19:46,0cc02849f3c5627fda6f0ea9655a2729,139.140.210.120,"Mozilla/5.0 (Macintosh; Intel Mac OS X 10_15_7) AppleWebKit/537.36 (KHTML, like Gecko) Chrome/131.0.0.0 Safari/537.36",Macintosh,Chrome,131.0.0.0,OS X,10_15_7,https://r4rkvwmaag.cognition.run/,"en-US,en;q=0.9",497652388,She would love a picture with a nuppical horse., ,nuppical,positive,,,,,,,,,,,,,,
,1802,sentence,html-keyboard-response,14,41577,0.0-1.0-0.13,16,3,11/13/24 19:46,0cc02849f3c5627fda6f0ea9655a2729,139.140.210.120,"Mozilla/5.0 (Macintosh; Intel Mac OS X 10_15_7) AppleWebKit/537.36 (KHTML, like Gecko) Chrome/131.0.0.0 Safari/537.36",Macintosh,Chrome,131.0.0.0,OS X,10_15_7,https://r4rkvwmaag.cognition.run/,"en-US,en;q=0.9",497652388,I would enjoy a nuppical apple., ,nuppical,positive,,,,,,,,,,,,,,
,4281,sentence,html-keyboard-response,15,45860,0.0-1.0-0.14,16,3,11/13/24 19:46,0cc02849f3c5627fda6f0ea9655a2729,139.140.210.120,"Mozilla/5.0 (Macintosh; Intel Mac OS X 10_15_7) AppleWebKit/537.36 (KHTML, like Gecko) Chrome/131.0.0.0 Safari/537.36",Macintosh,Chrome,131.0.0.0,OS X,10_15_7,https://r4rkvwmaag.cognition.run/,"en-US,en;q=0.9",497652388,She had never heard of a dodish horse., ,dodish,neutral,,,,,,,,,,,,,,
,2048,sentence,html-keyboard-response,16,47909,0.0-1.0-0.15,16,3,11/13/24 19:46,0cc02849f3c5627fda6f0ea9655a2729,139.140.210.120,"Mozilla/5.0 (Macintosh; Intel Mac OS X 10_15_7) AppleWebKit/537.36 (KHTML, like Gecko) Chrome/131.0.0.0 Safari/537.36",Macintosh,Chrome,131.0.0.0,OS X,10_15_7,https://r4rkvwmaag.cognition.run/,"en-US,en;q=0.9",497652388,I put the dodish apple on the table., ,dodish,neutral,,,,,,,,,,,,,,
,2240,sentence,html-keyboard-response,17,50150,0.0-1.0-0.16,16,3,11/13/24 19:46,0cc02849f3c5627fda6f0ea9655a2729,139.140.210.120,"Mozilla/5.0 (Macintosh; Intel Mac OS X 10_15_7) AppleWebKit/537.36 (KHTML, like Gecko) Chrome/131.0.0.0 Safari/537.36",Macintosh,Chrome,131.0.0.0,OS X,10_15_7,https://r4rkvwmaag.cognition.run/,"en-US,en;q=0.9",497652388,My day was ruined when I saw the foobly horse., ,foobly,negative,,,,,,,,,,,,,,
,2245,sentence,html-keyboard-response,18,52397,0.0-1.0-0.17,16,3,11/13/24 19:46,0cc02849f3c5627fda6f0ea9655a2729,139.140.210.120,"Mozilla/5.0 (Macintosh; Intel Mac OS X 10_15_7) AppleWebKit/537.36 (KHTML, like Gecko) Chrome/131.0.0.0 Safari/537.36",Macintosh,Chrome,131.0.0.0,OS X,10_15_7,https://r4rkvwmaag.cognition.run/,"en-US,en;q=0.9",497652388,"In every grocery store, there is probably a dodish apple.", ,dodish,neutral,,,,,,,,,,,,,,
,1629,sentence,html-keyboard-response,19,54028,0.0-1.0-0.18,16,3,11/13/24 19:46,0cc02849f3c5627fda6f0ea9655a2729,139.140.210.120,"Mozilla/5.0 (Macintosh; Intel Mac OS X 10_15_7) AppleWebKit/537.36 (KHTML, like Gecko) Chrome/131.0.0.0 Safari/537.36",Macintosh,Chrome,131.0.0.0,OS X,10_15_7,https://r4rkvwmaag.cognition.run/,"en-US,en;q=0.9",497652388,The people I met told me they saw a dodish apple., ,dodish,neutral,,,,,,,,,,,,,,
,1632,sentence,html-keyboard-response,20,55661,0.0-1.0-0.19,16,3,11/13/24 19:46,0cc02849f3c5627fda6f0ea9655a2729,139.140.210.120,"Mozilla/5.0 (Macintosh; Intel Mac OS X 10_15_7) AppleWebKit/537.36 (KHTML, like Gecko) Chrome/131.0.0.0 Safari/537.36",Macintosh,Chrome,131.0.0.0,OS X,10_15_7,https://r4rkvwmaag.cognition.run/,"en-US,en;q=0.9",497652388,I was so excited when I got to keep the nuppical horse., ,nuppical,positive,,,,,,,,,,,,,,
,2152,sentence,html-keyboard-response,21,57814,0.0-1.0-0.20,16,3,11/13/24 19:46,0cc02849f3c5627fda6f0ea9655a2729,139.140.210.120,"Mozilla/5.0 (Macintosh; Intel Mac OS X 10_15_7) AppleWebKit/537.36 (KHTML, like Gecko) Chrome/131.0.0.0 Safari/537.36",Macintosh,Chrome,131.0.0.0,OS X,10_15_7,https://r4rkvwmaag.cognition.run/,"en-US,en;q=0.9",497652388,I would love a nuppical apple., ,nuppical,positive,,,,,,,,,,,,,,
,1784,sentence,html-keyboard-response,22,59600,0.0-1.0-0.21,16,3,11/13/24 19:46,0cc02849f3c5627fda6f0ea9655a2729,139.140.210.120,"Mozilla/5.0 (Macintosh; Intel Mac OS X 10_15_7) AppleWebKit/537.36 (KHTML, like Gecko) Chrome/131.0.0.0 Safari/537.36",Macintosh,Chrome,131.0.0.0,OS X,10_15_7,https://r4rkvwmaag.cognition.run/,"en-US,en;q=0.9",497652388,Everybody hates a foobly apple., ,foobly,negative,,,,,,,,,,,,,,
,1822,sentence,html-keyboard-response,23,61423,0.0-1.0-0.22,16,3,11/13/24 19:46,0cc02849f3c5627fda6f0ea9655a2729,139.140.210.120,"Mozilla/5.0 (Macintosh; Intel Mac OS X 10_15_7) AppleWebKit/537.36 (KHTML, like Gecko) Chrome/131.0.0.0 Safari/537.36",Macintosh,Chrome,131.0.0.0,OS X,10_15_7,https://r4rkvwmaag.cognition.run/,"en-US,en;q=0.9",497652388,My friend will love a nuppical horse., ,nuppical,positive,,,,,,,,,,,,,,
,2063,sentence,html-keyboard-response,24,63488,0.0-1.0-0.23,16,3,11/13/24 19:46,0cc02849f3c5627fda6f0ea9655a2729,139.140.210.120,"Mozilla/5.0 (Macintosh; Intel Mac OS X 10_15_7) AppleWebKit/537.36 (KHTML, like Gecko) Chrome/131.0.0.0 Safari/537.36",Macintosh,Chrome,131.0.0.0,OS X,10_15_7,https://r4rkvwmaag.cognition.run/,"en-US,en;q=0.9",497652388,He was embarrassed to have a foobly horse., ,foobly,negative,,,,,,,,,,,,,,
,3317,attention,survey-text,25,66810,0.0-1.0-1.23-0.23,16,3,11/13/24 19:46,0cc02849f3c5627fda6f0ea9655a2729,139.140.210.120,"Mozilla/5.0 (Macintosh; Intel Mac OS X 10_15_7) AppleWebKit/537.36 (KHTML, like Gecko) Chrome/131.0.0.0 Safari/537.36",Macintosh,Chrome,131.0.0.0,OS X,10_15_7,https://r4rkvwmaag.cognition.run/,"en-US,en;q=0.9",497652388,,foobly,foobly,,1,,,,,,,,,,,,,
,1105,sentence,html-keyboard-response,26,67917,0.0-1.0-0.24,16,3,11/13/24 19:46,0cc02849f3c5627fda6f0ea9655a2729,139.140.210.120,"Mozilla/5.0 (Macintosh; Intel Mac OS X 10_15_7) AppleWebKit/537.36 (KHTML, like Gecko) Chrome/131.0.0.0 Safari/537.36",Macintosh,Chrome,131.0.0.0,OS X,10_15_7,https://r4rkvwmaag.cognition.run/,"en-US,en;q=0.9",497652388,He returned the dodish horse to the barn., ,dodish,neutral,,,,,,,,,,,,,,
,1258,sentence,html-keyboard-response,27,69177,0.0-1.0-0.25,16,3,11/13/24 19:46,0cc02849f3c5627fda6f0ea9655a2729,139.140.210.120,"Mozilla/5.0 (Macintosh; Intel Mac OS X 10_15_7) AppleWebKit/537.36 (KHTML, like Gecko) Chrome/131.0.0.0 Safari/537.36",Macintosh,Chrome,131.0.0.0,OS X,10_15_7,https://r4rkvwmaag.cognition.run/,"en-US,en;q=0.9",497652388,Some farms have a dodish horse., ,dodish,neutral,,,,,,,,,,,,,,
,1795,sentence,html-keyboard-response,28,70975,0.0-1.0-0.26,16,3,11/13/24 19:46,0cc02849f3c5627fda6f0ea9655a2729,139.140.210.120,"Mozilla/5.0 (Macintosh; Intel Mac OS X 10_15_7) AppleWebKit/537.36 (KHTML, like Gecko) Chrome/131.0.0.0 Safari/537.36",Macintosh,Chrome,131.0.0.0,OS X,10_15_7,https://r4rkvwmaag.cognition.run/,"en-US,en;q=0.9",497652388,My sister refuses to go near a foobly horse., ,foobly,negative,,,,,,,,,,,,,,
,1553,sentence,html-keyboard-response,29,72529,0.0-1.0-0.27,16,3,11/13/24 19:46,0cc02849f3c5627fda6f0ea9655a2729,139.140.210.120,"Mozilla/5.0 (Macintosh; Intel Mac OS X 10_15_7) AppleWebKit/537.36 (KHTML, like Gecko) Chrome/131.0.0.0 Safari/537.36",Macintosh,Chrome,131.0.0.0,OS X,10_15_7,https://r4rkvwmaag.cognition.run/,"en-US,en;q=0.9",497652388,My brother will not eat a foobly apple., ,foobly,negative,,,,,,,,,,,,,,
,1169,sentence,html-keyboard-response,30,73700,0.0-1.0-0.28,16,3,11/13/24 19:46,0cc02849f3c5627fda6f0ea9655a2729,139.140.210.120,"Mozilla/5.0 (Macintosh; Intel Mac OS X 10_15_7) AppleWebKit/537.36 (KHTML, like Gecko) Chrome/131.0.0.0 Safari/537.36",Macintosh,Chrome,131.0.0.0,OS X,10_15_7,https://r4rkvwmaag.cognition.run/,"en-US,en;q=0.9",497652388,I don't trust the foobly horse., ,foobly,negative,,,,,,,,,,,,,,
,1630,sentence,html-keyboard-response,31,75331,0.0-1.0-0.29,16,3,11/13/24 19:46,0cc02849f3c5627fda6f0ea9655a2729,139.140.210.120,"Mozilla/5.0 (Macintosh; Intel Mac OS X 10_15_7) AppleWebKit/537.36 (KHTML, like Gecko) Chrome/131.0.0.0 Safari/537.36",Macintosh,Chrome,131.0.0.0,OS X,10_15_7,https://r4rkvwmaag.cognition.run/,"en-US,en;q=0.9",497652388,I hope I don't see a foobly horse, ,foobly,negative,,,,,,,,,,,,,,
,2913,attention,survey-text,32,78248,0.0-1.0-1.29-0.29,16,3,11/13/24 19:46,0cc02849f3c5627fda6f0ea9655a2729,139.140.210.120,"Mozilla/5.0 (Macintosh; Intel Mac OS X 10_15_7) AppleWebKit/537.36 (KHTML, like Gecko) Chrome/131.0.0.0 Safari/537.36",Macintosh,Chrome,131.0.0.0,OS X,10_15_7,https://r4rkvwmaag.cognition.run/,"en-US,en;q=0.9",497652388,,foobly,foobly,,1,,,,,,,,,,,,,
,2354,sentence,html-keyboard-response,33,80604,0.0-1.0-0.30,16,3,11/13/24 19:46,0cc02849f3c5627fda6f0ea9655a2729,139.140.210.120,"Mozilla/5.0 (Macintosh; Intel Mac OS X 10_15_7) AppleWebKit/537.36 (KHTML, like Gecko) Chrome/131.0.0.0 Safari/537.36",Macintosh,Chrome,131.0.0.0,OS X,10_15_7,https://r4rkvwmaag.cognition.run/,"en-US,en;q=0.9",497652388,I would choose a nuppical apple over any other., ,nuppical,positive,,,,,,,,,,,,,,
,1429,sentence,html-keyboard-response,34,82035,0.0-1.0-0.31,16,3,11/13/24 19:46,0cc02849f3c5627fda6f0ea9655a2729,139.140.210.120,"Mozilla/5.0 (Macintosh; Intel Mac OS X 10_15_7) AppleWebKit/537.36 (KHTML, like Gecko) Chrome/131.0.0.0 Safari/537.36",Macintosh,Chrome,131.0.0.0,OS X,10_15_7,https://r4rkvwmaag.cognition.run/,"en-US,en;q=0.9",497652388,She avoids the foobly horse., ,foobly,negative,,,,,,,,,,,,,,
,1192,sentence,html-keyboard-response,35,83229,0.0-1.0-0.32,16,3,11/13/24 19:46,0cc02849f3c5627fda6f0ea9655a2729,139.140.210.120,"Mozilla/5.0 (Macintosh; Intel Mac OS X 10_15_7) AppleWebKit/537.36 (KHTML, like Gecko) Chrome/131.0.0.0 Safari/537.36",Macintosh,Chrome,131.0.0.0,OS X,10_15_7,https://r4rkvwmaag.cognition.run/,"en-US,en;q=0.9",497652388,He would not eat a foobly apple., ,foobly,negative,,,,,,,,,,,,,,
,1162,sentence,html-keyboard-response,36,84393,0.0-1.0-0.33,16,3,11/13/24 19:46,0cc02849f3c5627fda6f0ea9655a2729,139.140.210.120,"Mozilla/5.0 (Macintosh; Intel Mac OS X 10_15_7) AppleWebKit/537.36 (KHTML, like Gecko) Chrome/131.0.0.0 Safari/537.36",Macintosh,Chrome,131.0.0.0,OS X,10_15_7,https://r4rkvwmaag.cognition.run/,"en-US,en;q=0.9",497652388,"At the grocery store, I saw a dodish apple.", ,dodish,neutral,,,,,,,,,,,,,,
,1253,sentence,html-keyboard-response,37,85648,0.0-1.0-0.34,16,3,11/13/24 19:46,0cc02849f3c5627fda6f0ea9655a2729,139.140.210.120,"Mozilla/5.0 (Macintosh; Intel Mac OS X 10_15_7) AppleWebKit/537.36 (KHTML, like Gecko) Chrome/131.0.0.0 Safari/537.36",Macintosh,Chrome,131.0.0.0,OS X,10_15_7,https://r4rkvwmaag.cognition.run/,"en-US,en;q=0.9",497652388,We could see a dodish horse in the field., ,dodish,neutral,,,,,,,,,,,,,,
,1527,sentence,html-keyboard-response,38,87177,0.0-1.0-0.35,16,3,11/13/24 19:46,0cc02849f3c5627fda6f0ea9655a2729,139.140.210.120,"Mozilla/5.0 (Macintosh; Intel Mac OS X 10_15_7) AppleWebKit/537.36 (KHTML, like Gecko) Chrome/131.0.0.0 Safari/537.36",Macintosh,Chrome,131.0.0.0,OS X,10_15_7,https://r4rkvwmaag.cognition.run/,"en-US,en;q=0.9",497652388,The hay was for the dodish horse., ,dodish,neutral,,,,,,,,,,,,,,
,921,sentence,html-keyboard-response,39,88099,0.0-1.0-0.36,16,3,11/13/24 19:46,0cc02849f3c5627fda6f0ea9655a2729,139.140.210.120,"Mozilla/5.0 (Macintosh; Intel Mac OS X 10_15_7) AppleWebKit/537.36 (KHTML, like Gecko) Chrome/131.0.0.0 Safari/537.36",Macintosh,Chrome,131.0.0.0,OS X,10_15_7,https://r4rkvwmaag.cognition.run/,"en-US,en;q=0.9",497652388,A nuppical horse makes everything better., ,nuppical,positive,,,,,,,,,,,,,,
,1331,sentence,html-keyboard-response,40,89432,0.0-1.0-0.37,16,3,11/13/24 19:46,0cc02849f3c5627fda6f0ea9655a2729,139.140.210.120,"Mozilla/5.0 (Macintosh; Intel Mac OS X 10_15_7) AppleWebKit/537.36 (KHTML, like Gecko) Chrome/131.0.0.0 Safari/537.36",Macintosh,Chrome,131.0.0.0,OS X,10_15_7,https://r4rkvwmaag.cognition.run/,"en-US,en;q=0.9",497652388,He would prefer a nuppical apple., ,nuppical,positive,,,,,,,,,,,,,,
,1282,sentence,html-keyboard-response,41,90716,0.0-1.0-0.38,16,3,11/13/24 19:46,0cc02849f3c5627fda6f0ea9655a2729,139.140.210.120,"Mozilla/5.0 (Macintosh; Intel Mac OS X 10_15_7) AppleWebKit/537.36 (KHTML, like Gecko) Chrome/131.0.0.0 Safari/537.36",Macintosh,Chrome,131.0.0.0,OS X,10_15_7,https://r4rkvwmaag.cognition.run/,"en-US,en;q=0.9",497652388,Everyone prefers a nuppical apple., ,nuppical,positive,,,,,,,,,,,,,,
,1537,sentence,html-keyboard-response,42,92255,0.0-1.0-0.39,16,3,11/13/24 19:46,0cc02849f3c5627fda6f0ea9655a2729,139.140.210.120,"Mozilla/5.0 (Macintosh; Intel Mac OS X 10_15_7) AppleWebKit/537.36 (KHTML, like Gecko) Chrome/131.0.0.0 Safari/537.36",Macintosh,Chrome,131.0.0.0,OS X,10_15_7,https://r4rkvwmaag.cognition.run/,"en-US,en;q=0.9",497652388,She was disappointed by the taste of the foobly apple., ,foobly,negative,,,,,,,,,,,,,,
,1670,sentence,html-keyboard-response,43,93927,0.0-1.0-0.40,16,3,11/13/24 19:46,0cc02849f3c5627fda6f0ea9655a2729,139.140.210.120,"Mozilla/5.0 (Macintosh; Intel Mac OS X 10_15_7) AppleWebKit/537.36 (KHTML, like Gecko) Chrome/131.0.0.0 Safari/537.36",Macintosh,Chrome,131.0.0.0,OS X,10_15_7,https://r4rkvwmaag.cognition.run/,"en-US,en;q=0.9",497652388,I heard there was a dodish horse., ,dodish,neutral,,,,,,,,,,,,,,
,4634,attention,survey-text,44,98565,0.0-1.0-1.40-0.40,16,3,11/13/24 19:46,0cc02849f3c5627fda6f0ea9655a2729,139.140.210.120,"Mozilla/5.0 (Macintosh; Intel Mac OS X 10_15_7) AppleWebKit/537.36 (KHTML, like Gecko) Chrome/131.0.0.0 Safari/537.36",Macintosh,Chrome,131.0.0.0,OS X,10_15_7,https://r4rkvwmaag.cognition.run/,"en-US,en;q=0.9",497652388,,dodish,dodish,,1,,,,,,,,,,,,,
,2356,sentence,html-keyboard-response,45,100923,0.0-1.0-0.41,16,3,11/13/24 19:46,0cc02849f3c5627fda6f0ea9655a2729,139.140.210.120,"Mozilla/5.0 (Macintosh; Intel Mac OS X 10_15_7) AppleWebKit/537.36 (KHTML, like Gecko) Chrome/131.0.0.0 Safari/537.36",Macintosh,Chrome,131.0.0.0,OS X,10_15_7,https://r4rkvwmaag.cognition.run/,"en-US,en;q=0.9",497652388,She is so excited to try a nuppical apple., ,nuppical,positive,,,,,,,,,,,,,,
,1782,sentence,html-keyboard-response,46,102709,0.0-1.0-0.42,16,3,11/13/24 19:46,0cc02849f3c5627fda6f0ea9655a2729,139.140.210.120,"Mozilla/5.0 (Macintosh; Intel Mac OS X 10_15_7) AppleWebKit/537.36 (KHTML, like Gecko) Chrome/131.0.0.0 Safari/537.36",Macintosh,Chrome,131.0.0.0,OS X,10_15_7,https://r4rkvwmaag.cognition.run/,"en-US,en;q=0.9",497652388,My friend will love a nuppical horse., ,nuppical,positive,,,,,,,,,,,,,,
,2736,sentence,html-keyboard-response,47,105447,0.0-1.0-0.43,16,3,11/13/24 19:46,0cc02849f3c5627fda6f0ea9655a2729,139.140.210.120,"Mozilla/5.0 (Macintosh; Intel Mac OS X 10_15_7) AppleWebKit/537.36 (KHTML, like Gecko) Chrome/131.0.0.0 Safari/537.36",Macintosh,Chrome,131.0.0.0,OS X,10_15_7,https://r4rkvwmaag.cognition.run/,"en-US,en;q=0.9",497652388,I would love a nuppical apple., ,nuppical,positive,,,,,,,,,,,,,,
,2705,sentence,html-keyboard-response,48,108155,0.0-1.0-0.44,16,3,11/13/24 19:46,0cc02849f3c5627fda6f0ea9655a2729,139.140.210.120,"Mozilla/5.0 (Macintosh; Intel Mac OS X 10_15_7) AppleWebKit/537.36 (KHTML, like Gecko) Chrome/131.0.0.0 Safari/537.36",Macintosh,Chrome,131.0.0.0,OS X,10_15_7,https://r4rkvwmaag.cognition.run/,"en-US,en;q=0.9",497652388,I noticed there was a dodish apple., ,dodish,neutral,,,,,,,,,,,,,,
,1632,sentence,html-keyboard-response,49,109789,0.0-1.0-0.45,16,3,11/13/24 19:46,0cc02849f3c5627fda6f0ea9655a2729,139.140.210.120,"Mozilla/5.0 (Macintosh; Intel Mac OS X 10_15_7) AppleWebKit/537.36 (KHTML, like Gecko) Chrome/131.0.0.0 Safari/537.36",Macintosh,Chrome,131.0.0.0,OS X,10_15_7,https://r4rkvwmaag.cognition.run/,"en-US,en;q=0.9",497652388,She avoids the foobly horse., ,foobly,negative,,,,,,,,,,,,,,
,1617,sentence,html-keyboard-response,50,111407,0.0-1.0-0.46,16,3,11/13/24 19:46,0cc02849f3c5627fda6f0ea9655a2729,139.140.210.120,"Mozilla/5.0 (Macintosh; Intel Mac OS X 10_15_7) AppleWebKit/537.36 (KHTML, like Gecko) Chrome/131.0.0.0 Safari/537.36",Macintosh,Chrome,131.0.0.0,OS X,10_15_7,https://r4rkvwmaag.cognition.run/,"en-US,en;q=0.9",497652388,I put the dodish apple on the table., ,dodish,neutral,,,,,,,,,,,,,,
,2461,sentence,html-keyboard-response,51,113870,0.0-1.0-0.47,16,3,11/13/24 19:46,0cc02849f3c5627fda6f0ea9655a2729,139.140.210.120,"Mozilla/5.0 (Macintosh; Intel Mac OS X 10_15_7) AppleWebKit/537.36 (KHTML, like Gecko) Chrome/131.0.0.0 Safari/537.36",Macintosh,Chrome,131.0.0.0,OS X,10_15_7,https://r4rkvwmaag.cognition.run/,"en-US,en;q=0.9",497652388,He would prefer a nuppical apple., ,nuppical,positive,,,,,,,,,,,,,,
,3449,sentence,html-keyboard-response,52,117321,0.0-1.0-0.48,16,3,11/13/24 19:46,0cc02849f3c5627fda6f0ea9655a2729,139.140.210.120,"Mozilla/5.0 (Macintosh; Intel Mac OS X 10_15_7) AppleWebKit/537.36 (KHTML, like Gecko) Chrome/131.0.0.0 Safari/537.36",Macintosh,Chrome,131.0.0.0,OS X,10_15_7,https://r4rkvwmaag.cognition.run/,"en-US,en;q=0.9",497652388,He returned the dodish horse to the barn., ,dodish,neutral,,,,,,,,,,,,,,
,1739,sentence,html-keyboard-response,53,119061,0.0-1.0-0.49,16,3,11/13/24 19:46,0cc02849f3c5627fda6f0ea9655a2729,139.140.210.120,"Mozilla/5.0 (Macintosh; Intel Mac OS X 10_15_7) AppleWebKit/537.36 (KHTML, like Gecko) Chrome/131.0.0.0 Safari/537.36",Macintosh,Chrome,131.0.0.0,OS X,10_15_7,https://r4rkvwmaag.cognition.run/,"en-US,en;q=0.9",497652388,The people I met told me they saw a dodish apple., ,dodish,neutral,,,,,,,,,,,,,,
,1599,sentence,html-keyboard-response,54,120663,0.0-1.0-0.50,16,3,11/13/24 19:46,0cc02849f3c5627fda6f0ea9655a2729,139.140.210.120,"Mozilla/5.0 (Macintosh; Intel Mac OS X 10_15_7) AppleWebKit/537.36 (KHTML, like Gecko) Chrome/131.0.0.0 Safari/537.36",Macintosh,Chrome,131.0.0.0,OS X,10_15_7,https://r4rkvwmaag.cognition.run/,"en-US,en;q=0.9",497652388,She was unimpressed by the foobly horse., ,foobly,negative,,,,,,,,,,,,,,
,2415,sentence,html-keyboard-response,55,123081,0.0-1.0-0.51,16,3,11/13/24 19:46,0cc02849f3c5627fda6f0ea9655a2729,139.140.210.120,"Mozilla/5.0 (Macintosh; Intel Mac OS X 10_15_7) AppleWebKit/537.36 (KHTML, like Gecko) Chrome/131.0.0.0 Safari/537.36",Macintosh,Chrome,131.0.0.0,OS X,10_15_7,https://r4rkvwmaag.cognition.run/,"en-US,en;q=0.9",497652388,He really hoped to see a nuppical horse., ,nuppical,positive,,,,,,,,,,,,,,
,2781,sentence,html-keyboard-response,56,125864,0.0-1.0-0.52,16,3,11/13/24 19:46,0cc02849f3c5627fda6f0ea9655a2729,139.140.210.120,"Mozilla/5.0 (Macintosh; Intel Mac OS X 10_15_7) AppleWebKit/537.36 (KHTML, like Gecko) Chrome/131.0.0.0 Safari/537.36",Macintosh,Chrome,131.0.0.0,OS X,10_15_7,https://r4rkvwmaag.cognition.run/,"en-US,en;q=0.9",497652388,I would never try a foobly apple., ,foobly,negative,,,,,,,,,,,,,,
,4444,sentence,html-keyboard-response,57,130310,0.0-1.0-0.53,16,3,11/13/24 19:46,0cc02849f3c5627fda6f0ea9655a2729,139.140.210.120,"Mozilla/5.0 (Macintosh; Intel Mac OS X 10_15_7) AppleWebKit/537.36 (KHTML, like Gecko) Chrome/131.0.0.0 Safari/537.36",Macintosh,Chrome,131.0.0.0,OS X,10_15_7,https://r4rkvwmaag.cognition.run/,"en-US,en;q=0.9",497652388,"In every grocery store, there is probably a dodish apple.", ,dodish,neutral,,,,,,,,,,,,,,
,1188,sentence,html-keyboard-response,58,131500,0.0-1.0-0.54,16,3,11/13/24 19:46,0cc02849f3c5627fda6f0ea9655a2729,139.140.210.120,"Mozilla/5.0 (Macintosh; Intel Mac OS X 10_15_7) AppleWebKit/537.36 (KHTML, like Gecko) Chrome/131.0.0.0 Safari/537.36",Macintosh,Chrome,131.0.0.0,OS X,10_15_7,https://r4rkvwmaag.cognition.run/,"en-US,en;q=0.9",497652388,The hay was for the dodish horse., ,dodish,neutral,,,,,,,,,,,,,,
,2778,sentence,html-keyboard-response,59,134280,0.0-1.0-0.55,16,3,11/13/24 19:46,0cc02849f3c5627fda6f0ea9655a2729,139.140.210.120,"Mozilla/5.0 (Macintosh; Intel Mac OS X 10_15_7) AppleWebKit/537.36 (KHTML, like Gecko) Chrome/131.0.0.0 Safari/537.36",Macintosh,Chrome,131.0.0.0,OS X,10_15_7,https://r4rkvwmaag.cognition.run/,"en-US,en;q=0.9",497652388,My sister would love to play with the nuppical horse., ,nuppical,positive,,,,,,,,,,,,,,
,1399,sentence,html-keyboard-response,60,135681,0.0-1.0-0.56,16,3,11/13/24 19:46,0cc02849f3c5627fda6f0ea9655a2729,139.140.210.120,"Mozilla/5.0 (Macintosh; Intel Mac OS X 10_15_7) AppleWebKit/537.36 (KHTML, like Gecko) Chrome/131.0.0.0 Safari/537.36",Macintosh,Chrome,131.0.0.0,OS X,10_15_7,https://r4rkvwmaag.cognition.run/,"en-US,en;q=0.9",497652388,I was so excited when I got to keep the nuppical horse., ,nuppical,positive,,,,,,,,,,,,,,
,1250,sentence,html-keyboard-response,61,136933,0.0-1.0-0.57,16,3,11/13/24 19:46,0cc02849f3c5627fda6f0ea9655a2729,139.140.210.120,"Mozilla/5.0 (Macintosh; Intel Mac OS X 10_15_7) AppleWebKit/537.36 (KHTML, like Gecko) Chrome/131.0.0.0 Safari/537.36",Macintosh,Chrome,131.0.0.0,OS X,10_15_7,https://r4rkvwmaag.cognition.run/,"en-US,en;q=0.9",497652388,Everybody hates a foobly apple., ,foobly,negative,,,,,,,,,,,,,,
,1276,sentence,html-keyboard-response,62,138212,0.0-1.0-0.58,16,3,11/13/24 19:46,0cc02849f3c5627fda6f0ea9655a2729,139.140.210.120,"Mozilla/5.0 (Macintosh; Intel Mac OS X 10_15_7) AppleWebKit/537.36 (KHTML, like Gecko) Chrome/131.0.0.0 Safari/537.36",Macintosh,Chrome,131.0.0.0,OS X,10_15_7,https://r4rkvwmaag.cognition.run/,"en-US,en;q=0.9",497652388,I was thrilled when I finally got my own nuppical horse, ,nuppical,positive,,,,,,,,,,,,,,
,2245,sentence,html-keyboard-response,63,140460,0.0-1.0-0.59,16,3,11/13/24 19:46,0cc02849f3c5627fda6f0ea9655a2729,139.140.210.120,"Mozilla/5.0 (Macintosh; Intel Mac OS X 10_15_7) AppleWebKit/537.36 (KHTML, like Gecko) Chrome/131.0.0.0 Safari/537.36",Macintosh,Chrome,131.0.0.0,OS X,10_15_7,https://r4rkvwmaag.cognition.run/,"en-US,en;q=0.9",497652388,I would enjoy a nuppical apple., ,nuppical,positive,,,,,,,,,,,,,,
,1347,sentence,html-keyboard-response,64,141809,0.0-1.0-0.60,16,3,11/13/24 19:46,0cc02849f3c5627fda6f0ea9655a2729,139.140.210.120,"Mozilla/5.0 (Macintosh; Intel Mac OS X 10_15_7) AppleWebKit/537.36 (KHTML, like Gecko) Chrome/131.0.0.0 Safari/537.36",Macintosh,Chrome,131.0.0.0,OS X,10_15_7,https://r4rkvwmaag.cognition.run/,"en-US,en;q=0.9",497652388,In the basket there was a dodish apple., ,dodish,neutral,,,,,,,,,,,,,,
,1990,sentence,html-keyboard-response,65,143802,0.0-1.0-0.61,16,3,11/13/24 19:46,0cc02849f3c5627fda6f0ea9655a2729,139.140.210.120,"Mozilla/5.0 (Macintosh; Intel Mac OS X 10_15_7) AppleWebKit/537.36 (KHTML, like Gecko) Chrome/131.0.0.0 Safari/537.36",Macintosh,Chrome,131.0.0.0,OS X,10_15_7,https://r4rkvwmaag.cognition.run/,"en-US,en;q=0.9",497652388,We could see a dodish horse in the field., ,dodish,neutral,,,,,,,,,,,,,,
,1026,sentence,html-keyboard-response,66,144830,0.0-1.0-0.62,16,3,11/13/24 19:46,0cc02849f3c5627fda6f0ea9655a2729,139.140.210.120,"Mozilla/5.0 (Macintosh; Intel Mac OS X 10_15_7) AppleWebKit/537.36 (KHTML, like Gecko) Chrome/131.0.0.0 Safari/537.36",Macintosh,Chrome,131.0.0.0,OS X,10_15_7,https://r4rkvwmaag.cognition.run/,"en-US,en;q=0.9",497652388,He was embarrassed to have a foobly horse., ,foobly,negative,,,,,,,,,,,,,,
,1410,sentence,html-keyboard-response,67,146243,0.0-1.0-0.63,16,3,11/13/24 19:46,0cc02849f3c5627fda6f0ea9655a2729,139.140.210.120,"Mozilla/5.0 (Macintosh; Intel Mac OS X 10_15_7) AppleWebKit/537.36 (KHTML, like Gecko) Chrome/131.0.0.0 Safari/537.36",Macintosh,Chrome,131.0.0.0,OS X,10_15_7,https://r4rkvwmaag.cognition.run/,"en-US,en;q=0.9",497652388,Everyone prefers a nuppical apple., ,nuppical,positive,,,,,,,,,,,,,,
,301,sentence,html-keyboard-response,68,146546,0.0-1.0-0.64,16,3,11/13/24 19:46,0cc02849f3c5627fda6f0ea9655a2729,139.140.210.120,"Mozilla/5.0 (Macintosh; Intel Mac OS X 10_15_7) AppleWebKit/537.36 (KHTML, like Gecko) Chrome/131.0.0.0 Safari/537.36",Macintosh,Chrome,131.0.0.0,OS X,10_15_7,https://r4rkvwmaag.cognition.run/,"en-US,en;q=0.9",497652388,I would choose a nuppical apple over any other., ,nuppical,positive,,,,,,,,,,,,,,
,1113,sentence,html-keyboard-response,69,147660,0.0-1.0-0.65,16,3,11/13/24 19:46,0cc02849f3c5627fda6f0ea9655a2729,139.140.210.120,"Mozilla/5.0 (Macintosh; Intel Mac OS X 10_15_7) AppleWebKit/537.36 (KHTML, like Gecko) Chrome/131.0.0.0 Safari/537.36",Macintosh,Chrome,131.0.0.0,OS X,10_15_7,https://r4rkvwmaag.cognition.run/,"en-US,en;q=0.9",497652388,She is so excited to try a nuppical apple., ,nuppical,positive,,,,,,,,,,,,,,
,4530,attention,survey-text,70,152194,0.0-1.0-1.65-0.65,16,3,11/13/24 19:46,0cc02849f3c5627fda6f0ea9655a2729,139.140.210.120,"Mozilla/5.0 (Macintosh; Intel Mac OS X 10_15_7) AppleWebKit/537.36 (KHTML, like Gecko) Chrome/131.0.0.0 Safari/537.36",Macintosh,Chrome,131.0.0.0,OS X,10_15_7,https://r4rkvwmaag.cognition.run/,"en-US,en;q=0.9",497652388,,nuppical,nuppical,,1,,,,,,,,,,,,,
,2106,sentence,html-keyboard-response,71,154303,0.0-1.0-0.66,16,3,11/13/24 19:46,0cc02849f3c5627fda6f0ea9655a2729,139.140.210.120,"Mozilla/5.0 (Macintosh; Intel Mac OS X 10_15_7) AppleWebKit/537.36 (KHTML, like Gecko) Chrome/131.0.0.0 Safari/537.36",Macintosh,Chrome,131.0.0.0,OS X,10_15_7,https://r4rkvwmaag.cognition.run/,"en-US,en;q=0.9",497652388,I would hate a foobly apple., ,foobly,negative,,,,,,,,,,,,,,
,860,sentence,html-keyboard-response,72,155166,0.0-1.0-0.67,16,3,11/13/24 19:46,0cc02849f3c5627fda6f0ea9655a2729,139.140.210.120,"Mozilla/5.0 (Macintosh; Intel Mac OS X 10_15_7) AppleWebKit/537.36 (KHTML, like Gecko) Chrome/131.0.0.0 Safari/537.36",Macintosh,Chrome,131.0.0.0,OS X,10_15_7,https://r4rkvwmaag.cognition.run/,"en-US,en;q=0.9",497652388,She had never heard of a dodish horse., ,dodish,neutral,,,,,,,,,,,,,,
,24475,sentence,html-keyboard-response,73,179644,0.0-1.0-0.68,16,3,11/13/24 19:46,0cc02849f3c5627fda6f0ea9655a2729,139.140.210.120,"Mozilla/5.0 (Macintosh; Intel Mac OS X 10_15_7) AppleWebKit/537.36 (KHTML, like Gecko) Chrome/131.0.0.0 Safari/537.36",Macintosh,Chrome,131.0.0.0,OS X,10_15_7,https://r4rkvwmaag.cognition.run/,"en-US,en;q=0.9",497652388,My brother will not eat a foobly apple., ,foobly,negative,,,,,,,,,,,,,,
,1701,sentence,html-keyboard-response,74,181348,0.0-1.0-0.69,16,3,11/13/24 19:46,0cc02849f3c5627fda6f0ea9655a2729,139.140.210.120,"Mozilla/5.0 (Macintosh; Intel Mac OS X 10_15_7) AppleWebKit/537.36 (KHTML, like Gecko) Chrome/131.0.0.0 Safari/537.36",Macintosh,Chrome,131.0.0.0,OS X,10_15_7,https://r4rkvwmaag.cognition.run/,"en-US,en;q=0.9",497652388,My day was ruined when I saw the foobly horse., ,foobly,negative,,,,,,,,,,,,,,
,1619,sentence,html-keyboard-response,75,182969,0.0-1.0-0.70,16,3,11/13/24 19:46,0cc02849f3c5627fda6f0ea9655a2729,139.140.210.120,"Mozilla/5.0 (Macintosh; Intel Mac OS X 10_15_7) AppleWebKit/537.36 (KHTML, like Gecko) Chrome/131.0.0.0 Safari/537.36",Macintosh,Chrome,131.0.0.0,OS X,10_15_7,https://r4rkvwmaag.cognition.run/,"en-US,en;q=0.9",497652388,I heard there was a dodish horse., ,dodish,neutral,,,,,,,,,,,,,,
,2336,sentence,html-keyboard-response,76,185307,0.0-1.0-0.71,16,3,11/13/24 19:46,0cc02849f3c5627fda6f0ea9655a2729,139.140.210.120,"Mozilla/5.0 (Macintosh; Intel Mac OS X 10_15_7) AppleWebKit/537.36 (KHTML, like Gecko) Chrome/131.0.0.0 Safari/537.36",Macintosh,Chrome,131.0.0.0,OS X,10_15_7,https://r4rkvwmaag.cognition.run/,"en-US,en;q=0.9",497652388,My sister thought she saw a dodish horse., ,dodish,neutral,,,,,,,,,,,,,,
,5776,attention,survey-text,77,191089,0.0-1.0-1.71-0.71,16,3,11/13/24 19:46,0cc02849f3c5627fda6f0ea9655a2729,139.140.210.120,"Mozilla/5.0 (Macintosh; Intel Mac OS X 10_15_7) AppleWebKit/537.36 (KHTML, like Gecko) Chrome/131.0.0.0 Safari/537.36",Macintosh,Chrome,131.0.0.0,OS X,10_15_7,https://r4rkvwmaag.cognition.run/,"en-US,en;q=0.9",497652388,,dodish,dodish,,1,,,,,,,,,,,,,
,2306,sentence,html-keyboard-response,78,193397,0.0-1.0-0.72,16,3,11/13/24 19:46,0cc02849f3c5627fda6f0ea9655a2729,139.140.210.120,"Mozilla/5.0 (Macintosh; Intel Mac OS X 10_15_7) AppleWebKit/537.36 (KHTML, like Gecko) Chrome/131.0.0.0 Safari/537.36",Macintosh,Chrome,131.0.0.0,OS X,10_15_7,https://r4rkvwmaag.cognition.run/,"en-US,en;q=0.9",497652388,I hope I don't see a foobly horse, ,foobly,negative,,,,,,,,,,,,,,
,1566,sentence,html-keyboard-response,79,194964,0.0-1.0-0.73,16,3,11/13/24 19:46,0cc02849f3c5627fda6f0ea9655a2729,139.140.210.120,"Mozilla/5.0 (Macintosh; Intel Mac OS X 10_15_7) AppleWebKit/537.36 (KHTML, like Gecko) Chrome/131.0.0.0 Safari/537.36",Macintosh,Chrome,131.0.0.0,OS X,10_15_7,https://r4rkvwmaag.cognition.run/,"en-US,en;q=0.9",497652388,A nuppical horse makes everything better., ,nuppical,positive,,,,,,,,,,,,,,
,1843,sentence,html-keyboard-response,80,196809,0.0-1.0-0.74,16,3,11/13/24 19:46,0cc02849f3c5627fda6f0ea9655a2729,139.140.210.120,"Mozilla/5.0 (Macintosh; Intel Mac OS X 10_15_7) AppleWebKit/537.36 (KHTML, like Gecko) Chrome/131.0.0.0 Safari/537.36",Macintosh,Chrome,131.0.0.0,OS X,10_15_7,https://r4rkvwmaag.cognition.run/,"en-US,en;q=0.9",497652388,I could see a dodish apple., ,dodish,neutral,,,,,,,,,,,,,,
,2481,sentence,html-keyboard-response,81,199293,0.0-1.0-0.75,16,3,11/13/24 19:46,0cc02849f3c5627fda6f0ea9655a2729,139.140.210.120,"Mozilla/5.0 (Macintosh; Intel Mac OS X 10_15_7) AppleWebKit/537.36 (KHTML, like Gecko) Chrome/131.0.0.0 Safari/537.36",Macintosh,Chrome,131.0.0.0,OS X,10_15_7,https://r4rkvwmaag.cognition.run/,"en-US,en;q=0.9",497652388,He would not eat a foobly apple., ,foobly,negative,,,,,,,,,,,,,,
,1459,sentence,html-keyboard-response,82,200755,0.0-1.0-0.76,16,3,11/13/24 19:46,0cc02849f3c5627fda6f0ea9655a2729,139.140.210.120,"Mozilla/5.0 (Macintosh; Intel Mac OS X 10_15_7) AppleWebKit/537.36 (KHTML, like Gecko) Chrome/131.0.0.0 Safari/537.36",Macintosh,Chrome,131.0.0.0,OS X,10_15_7,https://r4rkvwmaag.cognition.run/,"en-US,en;q=0.9",497652388,"At the grocery store, I saw a dodish apple.", ,dodish,neutral,,,,,,,,,,,,,,
,3763,sentence,html-keyboard-response,83,204521,0.0-1.0-0.77,16,3,11/13/24 19:46,0cc02849f3c5627fda6f0ea9655a2729,139.140.210.120,"Mozilla/5.0 (Macintosh; Intel Mac OS X 10_15_7) AppleWebKit/537.36 (KHTML, like Gecko) Chrome/131.0.0.0 Safari/537.36",Macintosh,Chrome,131.0.0.0,OS X,10_15_7,https://r4rkvwmaag.cognition.run/,"en-US,en;q=0.9",497652388,She would love a picture with a nuppical horse., ,nuppical,positive,,,,,,,,,,,,,,
,2612,sentence,html-keyboard-response,84,207135,0.0-1.0-0.78,16,3,11/13/24 19:46,0cc02849f3c5627fda6f0ea9655a2729,139.140.210.120,"Mozilla/5.0 (Macintosh; Intel Mac OS X 10_15_7) AppleWebKit/537.36 (KHTML, like Gecko) Chrome/131.0.0.0 Safari/537.36",Macintosh,Chrome,131.0.0.0,OS X,10_15_7,https://r4rkvwmaag.cognition.run/,"en-US,en;q=0.9",497652388,I don't trust the foobly horse., ,foobly,negative,,,,,,,,,,,,,,
,1496,sentence,html-keyboard-response,85,208634,0.0-1.0-0.79,16,3,11/13/24 19:46,0cc02849f3c5627fda6f0ea9655a2729,139.140.210.120,"Mozilla/5.0 (Macintosh; Intel Mac OS X 10_15_7) AppleWebKit/537.36 (KHTML, like Gecko) Chrome/131.0.0.0 Safari/537.36",Macintosh,Chrome,131.0.0.0,OS X,10_15_7,https://r4rkvwmaag.cognition.run/,"en-US,en;q=0.9",497652388,My sister refuses to go near a foobly horse., ,foobly,negative,,,,,,,,,,,,,,
,2315,sentence,html-keyboard-response,86,210951,0.0-1.0-0.80,16,3,11/13/24 19:46,0cc02849f3c5627fda6f0ea9655a2729,139.140.210.120,"Mozilla/5.0 (Macintosh; Intel Mac OS X 10_15_7) AppleWebKit/537.36 (KHTML, like Gecko) Chrome/131.0.0.0 Safari/537.36",Macintosh,Chrome,131.0.0.0,OS X,10_15_7,https://r4rkvwmaag.cognition.run/,"en-US,en;q=0.9",497652388,I hope they don't have a foobly apple., ,foobly,negative,,,,,,,,,,,,,,
,1373,sentence,html-keyboard-response,87,212328,0.0-1.0-0.81,16,3,11/13/24 19:46,0cc02849f3c5627fda6f0ea9655a2729,139.140.210.120,"Mozilla/5.0 (Macintosh; Intel Mac OS X 10_15_7) AppleWebKit/537.36 (KHTML, like Gecko) Chrome/131.0.0.0 Safari/537.36",Macintosh,Chrome,131.0.0.0,OS X,10_15_7,https://r4rkvwmaag.cognition.run/,"en-US,en;q=0.9",497652388,I think nuppical apples are the best., ,nuppical,positive,,,,,,,,,,,,,,
,2202,sentence,html-keyboard-response,88,214531,0.0-1.0-0.82,16,3,11/13/24 19:46,0cc02849f3c5627fda6f0ea9655a2729,139.140.210.120,"Mozilla/5.0 (Macintosh; Intel Mac OS X 10_15_7) AppleWebKit/537.36 (KHTML, like Gecko) Chrome/131.0.0.0 Safari/537.36",Macintosh,Chrome,131.0.0.0,OS X,10_15_7,https://r4rkvwmaag.cognition.run/,"en-US,en;q=0.9",497652388,She was disappointed by the taste of the foobly apple., ,foobly,negative,,,,,,,,,,,,,,
,4596,attention,survey-text,89,219133,0.0-1.0-1.82-0.82,16,3,11/13/24 19:46,0cc02849f3c5627fda6f0ea9655a2729,139.140.210.120,"Mozilla/5.0 (Macintosh; Intel Mac OS X 10_15_7) AppleWebKit/537.36 (KHTML, like Gecko) Chrome/131.0.0.0 Safari/537.36",Macintosh,Chrome,131.0.0.0,OS X,10_15_7,https://r4rkvwmaag.cognition.run/,"en-US,en;q=0.9",497652388,,foobly,foobly,,1,,,,,,,,,,,,,
,3479,sentence,html-keyboard-response,90,222613,0.0-1.0-0.83,16,3,11/13/24 19:46,0cc02849f3c5627fda6f0ea9655a2729,139.140.210.120,"Mozilla/5.0 (Macintosh; Intel Mac OS X 10_15_7) AppleWebKit/537.36 (KHTML, like Gecko) Chrome/131.0.0.0 Safari/537.36",Macintosh,Chrome,131.0.0.0,OS X,10_15_7,https://r4rkvwmaag.cognition.run/,"en-US,en;q=0.9",497652388,Some farms have a dodish horse., ,dodish,neutral,,,,,,,,,,,,,,
,1913,sentence,html-keyboard-response,91,224529,0.0-1.0-0.84,16,3,11/13/24 19:46,0cc02849f3c5627fda6f0ea9655a2729,139.140.210.120,"Mozilla/5.0 (Macintosh; Intel Mac OS X 10_15_7) AppleWebKit/537.36 (KHTML, like Gecko) Chrome/131.0.0.0 Safari/537.36",Macintosh,Chrome,131.0.0.0,OS X,10_15_7,https://r4rkvwmaag.cognition.run/,"en-US,en;q=0.9",497652388,My sister thought she saw a dodish horse., ,dodish,neutral,,,,,,,,,,,,,,
,3986,sentence,html-keyboard-response,92,228517,0.0-1.0-0.85,16,3,11/13/24 19:46,0cc02849f3c5627fda6f0ea9655a2729,139.140.210.120,"Mozilla/5.0 (Macintosh; Intel Mac OS X 10_15_7) AppleWebKit/537.36 (KHTML, like Gecko) Chrome/131.0.0.0 Safari/537.36",Macintosh,Chrome,131.0.0.0,OS X,10_15_7,https://r4rkvwmaag.cognition.run/,"en-US,en;q=0.9",497652388,The people I met told me they saw a dodish apple., ,dodish,neutral,,,,,,,,,,,,,,
,10201,sentence,html-keyboard-response,93,238721,0.0-1.0-0.86,16,3,11/13/24 19:46,0cc02849f3c5627fda6f0ea9655a2729,139.140.210.120,"Mozilla/5.0 (Macintosh; Intel Mac OS X 10_15_7) AppleWebKit/537.36 (KHTML, like Gecko) Chrome/131.0.0.0 Safari/537.36",Macintosh,Chrome,131.0.0.0,OS X,10_15_7,https://r4rkvwmaag.cognition.run/,"en-US,en;q=0.9",497652388,My friend will love a nuppical horse., ,nuppical,positive,,,,,,,,,,,,,,
,3746,sentence,html-keyboard-response,94,242469,0.0-1.0-0.87,16,3,11/13/24 19:46,0cc02849f3c5627fda6f0ea9655a2729,139.140.210.120,"Mozilla/5.0 (Macintosh; Intel Mac OS X 10_15_7) AppleWebKit/537.36 (KHTML, like Gecko) Chrome/131.0.0.0 Safari/537.36",Macintosh,Chrome,131.0.0.0,OS X,10_15_7,https://r4rkvwmaag.cognition.run/,"en-US,en;q=0.9",497652388,I heard there was a dodish horse., ,dodish,neutral,,,,,,,,,,,,,,
,2311,sentence,html-keyboard-response,95,244783,0.0-1.0-0.88,16,3,11/13/24 19:46,0cc02849f3c5627fda6f0ea9655a2729,139.140.210.120,"Mozilla/5.0 (Macintosh; Intel Mac OS X 10_15_7) AppleWebKit/537.36 (KHTML, like Gecko) Chrome/131.0.0.0 Safari/537.36",Macintosh,Chrome,131.0.0.0,OS X,10_15_7,https://r4rkvwmaag.cognition.run/,"en-US,en;q=0.9",497652388,She would love a picture with a nuppical horse., ,nuppical,positive,,,,,,,,,,,,,,
,2096,sentence,html-keyboard-response,96,246882,0.0-1.0-0.89,16,3,11/13/24 19:46,0cc02849f3c5627fda6f0ea9655a2729,139.140.210.120,"Mozilla/5.0 (Macintosh; Intel Mac OS X 10_15_7) AppleWebKit/537.36 (KHTML, like Gecko) Chrome/131.0.0.0 Safari/537.36",Macintosh,Chrome,131.0.0.0,OS X,10_15_7,https://r4rkvwmaag.cognition.run/,"en-US,en;q=0.9",497652388,She is so excited to try a nuppical apple., ,nuppical,positive,,,,,,,,,,,,,,
,2786,sentence,html-keyboard-response,97,249671,0.0-1.0-0.90,16,3,11/13/24 19:46,0cc02849f3c5627fda6f0ea9655a2729,139.140.210.120,"Mozilla/5.0 (Macintosh; Intel Mac OS X 10_15_7) AppleWebKit/537.36 (KHTML, like Gecko) Chrome/131.0.0.0 Safari/537.36",Macintosh,Chrome,131.0.0.0,OS X,10_15_7,https://r4rkvwmaag.cognition.run/,"en-US,en;q=0.9",497652388,He would prefer a nuppical apple., ,nuppical,positive,,,,,,,,,,,,,,
,1396,sentence,html-keyboard-response,98,251071,0.0-1.0-0.91,16,3,11/13/24 19:46,0cc02849f3c5627fda6f0ea9655a2729,139.140.210.120,"Mozilla/5.0 (Macintosh; Intel Mac OS X 10_15_7) AppleWebKit/537.36 (KHTML, like Gecko) Chrome/131.0.0.0 Safari/537.36",Macintosh,Chrome,131.0.0.0,OS X,10_15_7,https://r4rkvwmaag.cognition.run/,"en-US,en;q=0.9",497652388,I would never try a foobly apple., ,foobly,negative,,,,,,,,,,,,,,
,1363,sentence,html-keyboard-response,99,252437,0.0-1.0-0.92,16,3,11/13/24 19:46,0cc02849f3c5627fda6f0ea9655a2729,139.140.210.120,"Mozilla/5.0 (Macintosh; Intel Mac OS X 10_15_7) AppleWebKit/537.36 (KHTML, like Gecko) Chrome/131.0.0.0 Safari/537.36",Macintosh,Chrome,131.0.0.0,OS X,10_15_7,https://r4rkvwmaag.cognition.run/,"en-US,en;q=0.9",497652388,I put the dodish apple on the table., ,dodish,neutral,,,,,,,,,,,,,,
,1625,sentence,html-keyboard-response,100,254064,0.0-1.0-0.93,16,3,11/13/24 19:46,0cc02849f3c5627fda6f0ea9655a2729,139.140.210.120,"Mozilla/5.0 (Macintosh; Intel Mac OS X 10_15_7) AppleWebKit/537.36 (KHTML, like Gecko) Chrome/131.0.0.0 Safari/537.36",Macintosh,Chrome,131.0.0.0,OS X,10_15_7,https://r4rkvwmaag.cognition.run/,"en-US,en;q=0.9",497652388,She was unimpressed by the foobly horse., ,foobly,negative,,,,,,,,,,,,,,
,1558,sentence,html-keyboard-response,101,255625,0.0-1.0-0.94,16,3,11/13/24 19:46,0cc02849f3c5627fda6f0ea9655a2729,139.140.210.120,"Mozilla/5.0 (Macintosh; Intel Mac OS X 10_15_7) AppleWebKit/537.36 (KHTML, like Gecko) Chrome/131.0.0.0 Safari/537.36",Macintosh,Chrome,131.0.0.0,OS X,10_15_7,https://r4rkvwmaag.cognition.run/,"en-US,en;q=0.9",497652388,A nuppical horse makes everything better., ,nuppical,positive,,,,,,,,,,,,,,
,3782,sentence,html-keyboard-response,102,259410,0.0-1.0-0.95,16,3,11/13/24 19:46,0cc02849f3c5627fda6f0ea9655a2729,139.140.210.120,"Mozilla/5.0 (Macintosh; Intel Mac OS X 10_15_7) AppleWebKit/537.36 (KHTML, like Gecko) Chrome/131.0.0.0 Safari/537.36",Macintosh,Chrome,131.0.0.0,OS X,10_15_7,https://r4rkvwmaag.cognition.run/,"en-US,en;q=0.9",497652388,We could see a dodish horse in the field., ,dodish,neutral,,,,,,,,,,,,,,
,5008,sentence,html-keyboard-response,103,264422,0.0-1.0-0.96,16,3,11/13/24 19:46,0cc02849f3c5627fda6f0ea9655a2729,139.140.210.120,"Mozilla/5.0 (Macintosh; Intel Mac OS X 10_15_7) AppleWebKit/537.36 (KHTML, like Gecko) Chrome/131.0.0.0 Safari/537.36",Macintosh,Chrome,131.0.0.0,OS X,10_15_7,https://r4rkvwmaag.cognition.run/,"en-US,en;q=0.9",497652388,I noticed there was a dodish apple., ,dodish,neutral,,,,,,,,,,,,,,
,1914,sentence,html-keyboard-response,104,266339,0.0-1.0-0.97,16,3,11/13/24 19:46,0cc02849f3c5627fda6f0ea9655a2729,139.140.210.120,"Mozilla/5.0 (Macintosh; Intel Mac OS X 10_15_7) AppleWebKit/537.36 (KHTML, like Gecko) Chrome/131.0.0.0 Safari/537.36",Macintosh,Chrome,131.0.0.0,OS X,10_15_7,https://r4rkvwmaag.cognition.run/,"en-US,en;q=0.9",497652388,I hope they don't have a foobly apple., ,foobly,negative,,,,,,,,,,,,,,
,1667,sentence,html-keyboard-response,105,268009,0.0-1.0-0.98,16,3,11/13/24 19:46,0cc02849f3c5627fda6f0ea9655a2729,139.140.210.120,"Mozilla/5.0 (Macintosh; Intel Mac OS X 10_15_7) AppleWebKit/537.36 (KHTML, like Gecko) Chrome/131.0.0.0 Safari/537.36",Macintosh,Chrome,131.0.0.0,OS X,10_15_7,https://r4rkvwmaag.cognition.run/,"en-US,en;q=0.9",497652388,He would not eat a foobly apple., ,foobly,negative,,,,,,,,,,,,,,
,2097,sentence,html-keyboard-response,106,270109,0.0-1.0-0.99,16,3,11/13/24 19:46,0cc02849f3c5627fda6f0ea9655a2729,139.140.210.120,"Mozilla/5.0 (Macintosh; Intel Mac OS X 10_15_7) AppleWebKit/537.36 (KHTML, like Gecko) Chrome/131.0.0.0 Safari/537.36",Macintosh,Chrome,131.0.0.0,OS X,10_15_7,https://r4rkvwmaag.cognition.run/,"en-US,en;q=0.9",497652388,I would love a nuppical apple., ,nuppical,positive,,,,,,,,,,,,,,
,1428,sentence,html-keyboard-response,107,271540,0.0-1.0-0.100,16,3,11/13/24 19:46,0cc02849f3c5627fda6f0ea9655a2729,139.140.210.120,"Mozilla/5.0 (Macintosh; Intel Mac OS X 10_15_7) AppleWebKit/537.36 (KHTML, like Gecko) Chrome/131.0.0.0 Safari/537.36",Macintosh,Chrome,131.0.0.0,OS X,10_15_7,https://r4rkvwmaag.cognition.run/,"en-US,en;q=0.9",497652388,The hay was for the dodish horse., ,dodish,neutral,,,,,,,,,,,,,,
,1512,sentence,html-keyboard-response,108,273054,0.0-1.0-0.101,16,3,11/13/24 19:46,0cc02849f3c5627fda6f0ea9655a2729,139.140.210.120,"Mozilla/5.0 (Macintosh; Intel Mac OS X 10_15_7) AppleWebKit/537.36 (KHTML, like Gecko) Chrome/131.0.0.0 Safari/537.36",Macintosh,Chrome,131.0.0.0,OS X,10_15_7,https://r4rkvwmaag.cognition.run/,"en-US,en;q=0.9",497652388,He returned the dodish horse to the barn., ,dodish,neutral,,,,,,,,,,,,,,
,1405,sentence,html-keyboard-response,109,274463,0.0-1.0-0.102,16,3,11/13/24 19:46,0cc02849f3c5627fda6f0ea9655a2729,139.140.210.120,"Mozilla/5.0 (Macintosh; Intel Mac OS X 10_15_7) AppleWebKit/537.36 (KHTML, like Gecko) Chrome/131.0.0.0 Safari/537.36",Macintosh,Chrome,131.0.0.0,OS X,10_15_7,https://r4rkvwmaag.cognition.run/,"en-US,en;q=0.9",497652388,I would choose a nuppical apple over any other., ,nuppical,positive,,,,,,,,,,,,,,
,1142,sentence,html-keyboard-response,110,275609,0.0-1.0-0.103,16,3,11/13/24 19:46,0cc02849f3c5627fda6f0ea9655a2729,139.140.210.120,"Mozilla/5.0 (Macintosh; Intel Mac OS X 10_15_7) AppleWebKit/537.36 (KHTML, like Gecko) Chrome/131.0.0.0 Safari/537.36",Macintosh,Chrome,131.0.0.0,OS X,10_15_7,https://r4rkvwmaag.cognition.run/,"en-US,en;q=0.9",497652388,In the basket there was a dodish apple., ,dodish,neutral,,,,,,,,,,,,,,
,650,sentence,html-keyboard-response,111,276262,0.0-1.0-0.104,16,3,11/13/24 19:46,0cc02849f3c5627fda6f0ea9655a2729,139.140.210.120,"Mozilla/5.0 (Macintosh; Intel Mac OS X 10_15_7) AppleWebKit/537.36 (KHTML, like Gecko) Chrome/131.0.0.0 Safari/537.36",Macintosh,Chrome,131.0.0.0,OS X,10_15_7,https://r4rkvwmaag.cognition.run/,"en-US,en;q=0.9",497652388,My sister refuses to go near a foobly horse., ,foobly,negative,,,,,,,,,,,,,,
,538,sentence,html-keyboard-response,112,276803,0.0-1.0-0.105,16,3,11/13/24 19:46,0cc02849f3c5627fda6f0ea9655a2729,139.140.210.120,"Mozilla/5.0 (Macintosh; Intel Mac OS X 10_15_7) AppleWebKit/537.36 (KHTML, like Gecko) Chrome/131.0.0.0 Safari/537.36",Macintosh,Chrome,131.0.0.0,OS X,10_15_7,https://r4rkvwmaag.cognition.run/,"en-US,en;q=0.9",497652388,I would enjoy a nuppical apple., ,nuppical,positive,,,,,,,,,,,,,,
,2635,sentence,html-keyboard-response,113,279441,0.0-1.0-0.106,16,3,11/13/24 19:46,0cc02849f3c5627fda6f0ea9655a2729,139.140.210.120,"Mozilla/5.0 (Macintosh; Intel Mac OS X 10_15_7) AppleWebKit/537.36 (KHTML, like Gecko) Chrome/131.0.0.0 Safari/537.36",Macintosh,Chrome,131.0.0.0,OS X,10_15_7,https://r4rkvwmaag.cognition.run/,"en-US,en;q=0.9",497652388,I was so excited when I got to keep the nuppical horse., ,nuppical,positive,,,,,,,,,,,,,,
,2012,sentence,html-keyboard-response,114,281456,0.0-1.0-0.107,16,3,11/13/24 19:46,0cc02849f3c5627fda6f0ea9655a2729,139.140.210.120,"Mozilla/5.0 (Macintosh; Intel Mac OS X 10_15_7) AppleWebKit/537.36 (KHTML, like Gecko) Chrome/131.0.0.0 Safari/537.36",Macintosh,Chrome,131.0.0.0,OS X,10_15_7,https://r4rkvwmaag.cognition.run/,"en-US,en;q=0.9",497652388,She had never heard of a dodish horse., ,dodish,neutral,,,,,,,,,,,,,,
,2483,attention,survey-text,115,283945,0.0-1.0-1.107-0.107,16,3,11/13/24 19:46,0cc02849f3c5627fda6f0ea9655a2729,139.140.210.120,"Mozilla/5.0 (Macintosh; Intel Mac OS X 10_15_7) AppleWebKit/537.36 (KHTML, like Gecko) Chrome/131.0.0.0 Safari/537.36",Macintosh,Chrome,131.0.0.0,OS X,10_15_7,https://r4rkvwmaag.cognition.run/,"en-US,en;q=0.9",497652388,,dodish,dodish,,1,,,,,,,,,,,,,
,1842,sentence,html-keyboard-response,116,285790,0.0-1.0-0.108,16,3,11/13/24 19:46,0cc02849f3c5627fda6f0ea9655a2729,139.140.210.120,"Mozilla/5.0 (Macintosh; Intel Mac OS X 10_15_7) AppleWebKit/537.36 (KHTML, like Gecko) Chrome/131.0.0.0 Safari/537.36",Macintosh,Chrome,131.0.0.0,OS X,10_15_7,https://r4rkvwmaag.cognition.run/,"en-US,en;q=0.9",497652388,I was thrilled when I finally got my own nuppical horse, ,nuppical,positive,,,,,,,,,,,,,,
,2438,sentence,html-keyboard-response,117,288232,0.0-1.0-0.109,16,3,11/13/24 19:46,0cc02849f3c5627fda6f0ea9655a2729,139.140.210.120,"Mozilla/5.0 (Macintosh; Intel Mac OS X 10_15_7) AppleWebKit/537.36 (KHTML, like Gecko) Chrome/131.0.0.0 Safari/537.36",Macintosh,Chrome,131.0.0.0,OS X,10_15_7,https://r4rkvwmaag.cognition.run/,"en-US,en;q=0.9",497652388,He was embarrassed to have a foobly horse., ,foobly,negative,,,,,,,,,,,,,,
,1839,sentence,html-keyboard-response,118,290075,0.0-1.0-0.110,16,3,11/13/24 19:46,0cc02849f3c5627fda6f0ea9655a2729,139.140.210.120,"Mozilla/5.0 (Macintosh; Intel Mac OS X 10_15_7) AppleWebKit/537.36 (KHTML, like Gecko) Chrome/131.0.0.0 Safari/537.36",Macintosh,Chrome,131.0.0.0,OS X,10_15_7,https://r4rkvwmaag.cognition.run/,"en-US,en;q=0.9",497652388,He really hoped to see a nuppical horse., ,nuppical,positive,,,,,,,,,,,,,,
,1451,sentence,html-keyboard-response,119,291529,0.0-1.0-0.111,16,3,11/13/24 19:46,0cc02849f3c5627fda6f0ea9655a2729,139.140.210.120,"Mozilla/5.0 (Macintosh; Intel Mac OS X 10_15_7) AppleWebKit/537.36 (KHTML, like Gecko) Chrome/131.0.0.0 Safari/537.36",Macintosh,Chrome,131.0.0.0,OS X,10_15_7,https://r4rkvwmaag.cognition.run/,"en-US,en;q=0.9",497652388,I would hate a foobly apple., ,foobly,negative,,,,,,,,,,,,,,
,2416,sentence,html-keyboard-response,120,293948,0.0-1.0-0.112,16,3,11/13/24 19:46,0cc02849f3c5627fda6f0ea9655a2729,139.140.210.120,"Mozilla/5.0 (Macintosh; Intel Mac OS X 10_15_7) AppleWebKit/537.36 (KHTML, like Gecko) Chrome/131.0.0.0 Safari/537.36",Macintosh,Chrome,131.0.0.0,OS X,10_15_7,https://r4rkvwmaag.cognition.run/,"en-US,en;q=0.9",497652388,"In every grocery store, there is probably a dodish apple.", ,dodish,neutral,,,,,,,,,,,,,,
,2191,sentence,html-keyboard-response,121,296143,0.0-1.0-0.113,16,3,11/13/24 19:46,0cc02849f3c5627fda6f0ea9655a2729,139.140.210.120,"Mozilla/5.0 (Macintosh; Intel Mac OS X 10_15_7) AppleWebKit/537.36 (KHTML, like Gecko) Chrome/131.0.0.0 Safari/537.36",Macintosh,Chrome,131.0.0.0,OS X,10_15_7,https://r4rkvwmaag.cognition.run/,"en-US,en;q=0.9",497652388,She was disappointed by the taste of the foobly apple., ,foobly,negative,,,,,,,,,,,,,,
,2907,attention,survey-text,122,299056,0.0-1.0-1.113-0.113,16,3,11/13/24 19:46,0cc02849f3c5627fda6f0ea9655a2729,139.140.210.120,"Mozilla/5.0 (Macintosh; Intel Mac OS X 10_15_7) AppleWebKit/537.36 (KHTML, like Gecko) Chrome/131.0.0.0 Safari/537.36",Macintosh,Chrome,131.0.0.0,OS X,10_15_7,https://r4rkvwmaag.cognition.run/,"en-US,en;q=0.9",497652388,,foobly,foobly,,1,,,,,,,,,,,,,
,3078,sentence,html-keyboard-response,123,302137,0.0-1.0-0.114,16,3,11/13/24 19:46,0cc02849f3c5627fda6f0ea9655a2729,139.140.210.120,"Mozilla/5.0 (Macintosh; Intel Mac OS X 10_15_7) AppleWebKit/537.36 (KHTML, like Gecko) Chrome/131.0.0.0 Safari/537.36",Macintosh,Chrome,131.0.0.0,OS X,10_15_7,https://r4rkvwmaag.cognition.run/,"en-US,en;q=0.9",497652388,"At the grocery store, I saw a dodish apple.", ,dodish,neutral,,,,,,,,,,,,,,
,1548,sentence,html-keyboard-response,124,303689,0.0-1.0-0.115,16,3,11/13/24 19:46,0cc02849f3c5627fda6f0ea9655a2729,139.140.210.120,"Mozilla/5.0 (Macintosh; Intel Mac OS X 10_15_7) AppleWebKit/537.36 (KHTML, like Gecko) Chrome/131.0.0.0 Safari/537.36",Macintosh,Chrome,131.0.0.0,OS X,10_15_7,https://r4rkvwmaag.cognition.run/,"en-US,en;q=0.9",497652388,I hope I don't see a foobly horse, ,foobly,negative,,,,,,,,,,,,,,
,2673,sentence,html-keyboard-response,125,306366,0.0-1.0-0.116,16,3,11/13/24 19:46,0cc02849f3c5627fda6f0ea9655a2729,139.140.210.120,"Mozilla/5.0 (Macintosh; Intel Mac OS X 10_15_7) AppleWebKit/537.36 (KHTML, like Gecko) Chrome/131.0.0.0 Safari/537.36",Macintosh,Chrome,131.0.0.0,OS X,10_15_7,https://r4rkvwmaag.cognition.run/,"en-US,en;q=0.9",497652388,Some farms have a dodish horse., ,dodish,neutral,,,,,,,,,,,,,,
,1882,sentence,html-keyboard-response,126,308251,0.0-1.0-0.117,16,3,11/13/24 19:46,0cc02849f3c5627fda6f0ea9655a2729,139.140.210.120,"Mozilla/5.0 (Macintosh; Intel Mac OS X 10_15_7) AppleWebKit/537.36 (KHTML, like Gecko) Chrome/131.0.0.0 Safari/537.36",Macintosh,Chrome,131.0.0.0,OS X,10_15_7,https://r4rkvwmaag.cognition.run/,"en-US,en;q=0.9",497652388,My brother will not eat a foobly apple., ,foobly,negative,,,,,,,,,,,,,,
,2694,sentence,html-keyboard-response,127,310948,0.0-1.0-0.118,16,3,11/13/24 19:46,0cc02849f3c5627fda6f0ea9655a2729,139.140.210.120,"Mozilla/5.0 (Macintosh; Intel Mac OS X 10_15_7) AppleWebKit/537.36 (KHTML, like Gecko) Chrome/131.0.0.0 Safari/537.36",Macintosh,Chrome,131.0.0.0,OS X,10_15_7,https://r4rkvwmaag.cognition.run/,"en-US,en;q=0.9",497652388,I think nuppical apples are the best., ,nuppical,positive,,,,,,,,,,,,,,
,6452,sentence,html-keyboard-response,128,317405,0.0-1.0-0.119,16,3,11/13/24 19:46,0cc02849f3c5627fda6f0ea9655a2729,139.140.210.120,"Mozilla/5.0 (Macintosh; Intel Mac OS X 10_15_7) AppleWebKit/537.36 (KHTML, like Gecko) Chrome/131.0.0.0 Safari/537.36",Macintosh,Chrome,131.0.0.0,OS X,10_15_7,https://r4rkvwmaag.cognition.run/,"en-US,en;q=0.9",497652388,Everybody hates a foobly apple., ,foobly,negative,,,,,,,,,,,,,,
,2044,sentence,html-keyboard-response,129,319451,0.0-1.0-0.120,16,3,11/13/24 19:46,0cc02849f3c5627fda6f0ea9655a2729,139.140.210.120,"Mozilla/5.0 (Macintosh; Intel Mac OS X 10_15_7) AppleWebKit/537.36 (KHTML, like Gecko) Chrome/131.0.0.0 Safari/537.36",Macintosh,Chrome,131.0.0.0,OS X,10_15_7,https://r4rkvwmaag.cognition.run/,"en-US,en;q=0.9",497652388,My sister would love to play with the nuppical horse., ,nuppical,positive,,,,,,,,,,,,,,
,2757,sentence,html-keyboard-response,130,322210,0.0-1.0-0.121,16,3,11/13/24 19:46,0cc02849f3c5627fda6f0ea9655a2729,139.140.210.120,"Mozilla/5.0 (Macintosh; Intel Mac OS X 10_15_7) AppleWebKit/537.36 (KHTML, like Gecko) Chrome/131.0.0.0 Safari/537.36",Macintosh,Chrome,131.0.0.0,OS X,10_15_7,https://r4rkvwmaag.cognition.run/,"en-US,en;q=0.9",497652388,I don't trust the foobly horse., ,foobly,negative,,,,,,,,,,,,,,
,2151,sentence,html-keyboard-response,131,324364,0.0-1.0-0.122,16,3,11/13/24 19:46,0cc02849f3c5627fda6f0ea9655a2729,139.140.210.120,"Mozilla/5.0 (Macintosh; Intel Mac OS X 10_15_7) AppleWebKit/537.36 (KHTML, like Gecko) Chrome/131.0.0.0 Safari/537.36",Macintosh,Chrome,131.0.0.0,OS X,10_15_7,https://r4rkvwmaag.cognition.run/,"en-US,en;q=0.9",497652388,Everyone prefers a nuppical apple., ,nuppical,positive,,,,,,,,,,,,,,
,3039,sentence,html-keyboard-response,132,327407,0.0-1.0-0.123,16,3,11/13/24 19:46,0cc02849f3c5627fda6f0ea9655a2729,139.140.210.120,"Mozilla/5.0 (Macintosh; Intel Mac OS X 10_15_7) AppleWebKit/537.36 (KHTML, like Gecko) Chrome/131.0.0.0 Safari/537.36",Macintosh,Chrome,131.0.0.0,OS X,10_15_7,https://r4rkvwmaag.cognition.run/,"en-US,en;q=0.9",497652388,She avoids the foobly horse., ,foobly,negative,,,,,,,,,,,,,,
,2656,sentence,html-keyboard-response,133,330066,0.0-1.0-0.124,16,3,11/13/24 19:46,0cc02849f3c5627fda6f0ea9655a2729,139.140.210.120,"Mozilla/5.0 (Macintosh; Intel Mac OS X 10_15_7) AppleWebKit/537.36 (KHTML, like Gecko) Chrome/131.0.0.0 Safari/537.36",Macintosh,Chrome,131.0.0.0,OS X,10_15_7,https://r4rkvwmaag.cognition.run/,"en-US,en;q=0.9",497652388,I could see a dodish apple., ,dodish,neutral,,,,,,,,,,,,,,
,2781,attention,survey-text,134,332852,0.0-1.0-1.124-0.124,16,3,11/13/24 19:46,0cc02849f3c5627fda6f0ea9655a2729,139.140.210.120,"Mozilla/5.0 (Macintosh; Intel Mac OS X 10_15_7) AppleWebKit/537.36 (KHTML, like Gecko) Chrome/131.0.0.0 Safari/537.36",Macintosh,Chrome,131.0.0.0,OS X,10_15_7,https://r4rkvwmaag.cognition.run/,"en-US,en;q=0.9",497652388,,dodish,dodish,,1,,,,,,,,,,,,,
,3484,sentence,html-keyboard-response,135,336340,0.0-1.0-0.125,16,3,11/13/24 19:46,0cc02849f3c5627fda6f0ea9655a2729,139.140.210.120,"Mozilla/5.0 (Macintosh; Intel Mac OS X 10_15_7) AppleWebKit/537.36 (KHTML, like Gecko) Chrome/131.0.0.0 Safari/537.36",Macintosh,Chrome,131.0.0.0,OS X,10_15_7,https://r4rkvwmaag.cognition.run/,"en-US,en;q=0.9",497652388,My day was ruined when I saw the foobly horse., ,foobly,negative,,,,,,,,,,,,,,
"[{""page_index"":0,""viewing_time"":3369},{""page_index"":1,""viewing_time"":7910}]",11279,instructions,instructions,136,347624,0.0-2.0,16,3,11/13/24 19:46,0cc02849f3c5627fda6f0ea9655a2729,139.140.210.120,"Mozilla/5.0 (Macintosh; Intel Mac OS X 10_15_7) AppleWebKit/537.36 (KHTML, like Gecko) Chrome/131.0.0.0 Safari/537.36",Macintosh,Chrome,131.0.0.0,OS X,10_15_7,https://r4rkvwmaag.cognition.run/,"en-US,en;q=0.9",497652388,,,,,,,,,,,,,,,,,,
,null,fixation,html-keyboard-response,137,347930,0.0-3.0-0.0,16,3,11/13/24 19:46,0cc02849f3c5627fda6f0ea9655a2729,139.140.210.120,"Mozilla/5.0 (Macintosh; Intel Mac OS X 10_15_7) AppleWebKit/537.36 (KHTML, like Gecko) Chrome/131.0.0.0 Safari/537.36",Macintosh,Chrome,131.0.0.0,OS X,10_15_7,https://r4rkvwmaag.cognition.run/,"en-US,en;q=0.9",497652388,+,null,,,,,,,,,,,,,,,,
,null,image,image-keyboard-response,138,348438,0.0-3.0-1.0,16,3,11/13/24 19:46,0cc02849f3c5627fda6f0ea9655a2729,139.140.210.120,"Mozilla/5.0 (Macintosh; Intel Mac OS X 10_15_7) AppleWebKit/537.36 (KHTML, like Gecko) Chrome/131.0.0.0 Safari/537.36",Macintosh,Chrome,131.0.0.0,OS X,10_15_7,https://r4rkvwmaag.cognition.run/,"en-US,en;q=0.9",497652388,applehorse2.png,null,,,,,,,,,,,,,,,,
,null,prime,image-keyboard-response,139,348945,0.0-3.0-2.0,16,3,11/13/24 19:46,0cc02849f3c5627fda6f0ea9655a2729,139.140.210.120,"Mozilla/5.0 (Macintosh; Intel Mac OS X 10_15_7) AppleWebKit/537.36 (KHTML, like Gecko) Chrome/131.0.0.0 Safari/537.36",Macintosh,Chrome,131.0.0.0,OS X,10_15_7,https://r4rkvwmaag.cognition.run/,"en-US,en;q=0.9",497652388,applehorse2.png,null,,,,,,,,,,,,,,,,
,416,target,image-keyboard-response,140,349367,0.0-3.0-3.0,16,3,11/13/24 19:46,0cc02849f3c5627fda6f0ea9655a2729,139.140.210.120,"Mozilla/5.0 (Macintosh; Intel Mac OS X 10_15_7) AppleWebKit/537.36 (KHTML, like Gecko) Chrome/131.0.0.0 Safari/537.36",Macintosh,Chrome,131.0.0.0,OS X,10_15_7,https://r4rkvwmaag.cognition.run/,"en-US,en;q=0.9",497652388,applehorse2.png,l,,,TRUE,horse,mipp,L,,,,,,,,,,
,null,feedback,html-keyboard-response,141,350373,0.0-3.0-4.0,16,3,11/13/24 19:46,0cc02849f3c5627fda6f0ea9655a2729,139.140.210.120,"Mozilla/5.0 (Macintosh; Intel Mac OS X 10_15_7) AppleWebKit/537.36 (KHTML, like Gecko) Chrome/131.0.0.0 Safari/537.36",Macintosh,Chrome,131.0.0.0,OS X,10_15_7,https://r4rkvwmaag.cognition.run/,"en-US,en;q=0.9",497652388,<b>Correct!</b>,null,,,,,,,,,,,,,,,,
,null,fixation,html-keyboard-response,142,350679,0.0-3.0-0.1,16,3,11/13/24 19:46,0cc02849f3c5627fda6f0ea9655a2729,139.140.210.120,"Mozilla/5.0 (Macintosh; Intel Mac OS X 10_15_7) AppleWebKit/537.36 (KHTML, like Gecko) Chrome/131.0.0.0 Safari/537.36",Macintosh,Chrome,131.0.0.0,OS X,10_15_7,https://r4rkvwmaag.cognition.run/,"en-US,en;q=0.9",497652388,+,null,,,,,,,,,,,,,,,,
,null,image,image-keyboard-response,143,351185,0.0-3.0-1.1,16,3,11/13/24 19:46,0cc02849f3c5627fda6f0ea9655a2729,139.140.210.120,"Mozilla/5.0 (Macintosh; Intel Mac OS X 10_15_7) AppleWebKit/537.36 (KHTML, like Gecko) Chrome/131.0.0.0 Safari/537.36",Macintosh,Chrome,131.0.0.0,OS X,10_15_7,https://r4rkvwmaag.cognition.run/,"en-US,en;q=0.9",497652388,horseapple2.png,null,,,,,,,,,,,,,,,,
,null,prime,image-keyboard-response,144,351692,0.0-3.0-2.1,16,3,11/13/24 19:46,0cc02849f3c5627fda6f0ea9655a2729,139.140.210.120,"Mozilla/5.0 (Macintosh; Intel Mac OS X 10_15_7) AppleWebKit/537.36 (KHTML, like Gecko) Chrome/131.0.0.0 Safari/537.36",Macintosh,Chrome,131.0.0.0,OS X,10_15_7,https://r4rkvwmaag.cognition.run/,"en-US,en;q=0.9",497652388,horseapple2.png,null,,,,,,,,,,,,,,,,
,472,target,image-keyboard-response,145,352170,0.0-3.0-3.1,16,3,11/13/24 19:46,0cc02849f3c5627fda6f0ea9655a2729,139.140.210.120,"Mozilla/5.0 (Macintosh; Intel Mac OS X 10_15_7) AppleWebKit/537.36 (KHTML, like Gecko) Chrome/131.0.0.0 Safari/537.36",Macintosh,Chrome,131.0.0.0,OS X,10_15_7,https://r4rkvwmaag.cognition.run/,"en-US,en;q=0.9",497652388,horseapple2.png,l,,,TRUE,apple,boff,L,,,,,,,,,,
,null,feedback,html-keyboard-response,146,353176,0.0-3.0-4.1,16,3,11/13/24 19:46,0cc02849f3c5627fda6f0ea9655a2729,139.140.210.120,"Mozilla/5.0 (Macintosh; Intel Mac OS X 10_15_7) AppleWebKit/537.36 (KHTML, like Gecko) Chrome/131.0.0.0 Safari/537.36",Macintosh,Chrome,131.0.0.0,OS X,10_15_7,https://r4rkvwmaag.cognition.run/,"en-US,en;q=0.9",497652388,<b>Correct!</b>,null,,,,,,,,,,,,,,,,
,null,fixation,html-keyboard-response,147,353482,0.0-3.0-0.2,16,3,11/13/24 19:46,0cc02849f3c5627fda6f0ea9655a2729,139.140.210.120,"Mozilla/5.0 (Macintosh; Intel Mac OS X 10_15_7) AppleWebKit/537.36 (KHTML, like Gecko) Chrome/131.0.0.0 Safari/537.36",Macintosh,Chrome,131.0.0.0,OS X,10_15_7,https://r4rkvwmaag.cognition.run/,"en-US,en;q=0.9",497652388,+,null,,,,,,,,,,,,,,,,
,null,image,image-keyboard-response,148,353989,0.0-3.0-1.2,16,3,11/13/24 19:46,0cc02849f3c5627fda6f0ea9655a2729,139.140.210.120,"Mozilla/5.0 (Macintosh; Intel Mac OS X 10_15_7) AppleWebKit/537.36 (KHTML, like Gecko) Chrome/131.0.0.0 Safari/537.36",Macintosh,Chrome,131.0.0.0,OS X,10_15_7,https://r4rkvwmaag.cognition.run/,"en-US,en;q=0.9",497652388,applehorse2.png,null,,,,,,,,,,,,,,,,
,null,prime,image-keyboard-response,149,354497,0.0-3.0-2.2,16,3,11/13/24 19:46,0cc02849f3c5627fda6f0ea9655a2729,139.140.210.120,"Mozilla/5.0 (Macintosh; Intel Mac OS X 10_15_7) AppleWebKit/537.36 (KHTML, like Gecko) Chrome/131.0.0.0 Safari/537.36",Macintosh,Chrome,131.0.0.0,OS X,10_15_7,https://r4rkvwmaag.cognition.run/,"en-US,en;q=0.9",497652388,applehorse2.png,null,,,,,,,,,,,,,,,,
,557,target,image-keyboard-response,150,355060,0.0-3.0-3.2,16,3,11/13/24 19:46,0cc02849f3c5627fda6f0ea9655a2729,139.140.210.120,"Mozilla/5.0 (Macintosh; Intel Mac OS X 10_15_7) AppleWebKit/537.36 (KHTML, like Gecko) Chrome/131.0.0.0 Safari/537.36",Macintosh,Chrome,131.0.0.0,OS X,10_15_7,https://r4rkvwmaag.cognition.run/,"en-US,en;q=0.9",497652388,applehorse2.png,a,,,TRUE,apple,boff,A,,,,,,,,,,
,null,feedback,html-keyboard-response,151,356066,0.0-3.0-4.2,16,3,11/13/24 19:46,0cc02849f3c5627fda6f0ea9655a2729,139.140.210.120,"Mozilla/5.0 (Macintosh; Intel Mac OS X 10_15_7) AppleWebKit/537.36 (KHTML, like Gecko) Chrome/131.0.0.0 Safari/537.36",Macintosh,Chrome,131.0.0.0,OS X,10_15_7,https://r4rkvwmaag.cognition.run/,"en-US,en;q=0.9",497652388,<b>Correct!</b>,null,,,,,,,,,,,,,,,,
,null,fixation,html-keyboard-response,152,356372,0.0-3.0-0.3,16,3,11/13/24 19:46,0cc02849f3c5627fda6f0ea9655a2729,139.140.210.120,"Mozilla/5.0 (Macintosh; Intel Mac OS X 10_15_7) AppleWebKit/537.36 (KHTML, like Gecko) Chrome/131.0.0.0 Safari/537.36",Macintosh,Chrome,131.0.0.0,OS X,10_15_7,https://r4rkvwmaag.cognition.run/,"en-US,en;q=0.9",497652388,+,null,,,,,,,,,,,,,,,,
,null,image,image-keyboard-response,153,356880,0.0-3.0-1.3,16,3,11/13/24 19:46,0cc02849f3c5627fda6f0ea9655a2729,139.140.210.120,"Mozilla/5.0 (Macintosh; Intel Mac OS X 10_15_7) AppleWebKit/537.36 (KHTML, like Gecko) Chrome/131.0.0.0 Safari/537.36",Macintosh,Chrome,131.0.0.0,OS X,10_15_7,https://r4rkvwmaag.cognition.run/,"en-US,en;q=0.9",497652388,applehorse2.png,null,,,,,,,,,,,,,,,,
,null,prime,image-keyboard-response,154,357388,0.0-3.0-2.3,16,3,11/13/24 19:46,0cc02849f3c5627fda6f0ea9655a2729,139.140.210.120,"Mozilla/5.0 (Macintosh; Intel Mac OS X 10_15_7) AppleWebKit/537.36 (KHTML, like Gecko) Chrome/131.0.0.0 Safari/537.36",Macintosh,Chrome,131.0.0.0,OS X,10_15_7,https://r4rkvwmaag.cognition.run/,"en-US,en;q=0.9",497652388,applehorse2.png,null,,,,,,,,,,,,,,,,
,455,target,image-keyboard-response,155,357849,0.0-3.0-3.3,16,3,11/13/24 19:46,0cc02849f3c5627fda6f0ea9655a2729,139.140.210.120,"Mozilla/5.0 (Macintosh; Intel Mac OS X 10_15_7) AppleWebKit/537.36 (KHTML, like Gecko) Chrome/131.0.0.0 Safari/537.36",Macintosh,Chrome,131.0.0.0,OS X,10_15_7,https://r4rkvwmaag.cognition.run/,"en-US,en;q=0.9",497652388,applehorse2.png,l,,,TRUE,horse,geck,L,,,,,,,,,,
,null,feedback,html-keyboard-response,156,358854,0.0-3.0-4.3,16,3,11/13/24 19:46,0cc02849f3c5627fda6f0ea9655a2729,139.140.210.120,"Mozilla/5.0 (Macintosh; Intel Mac OS X 10_15_7) AppleWebKit/537.36 (KHTML, like Gecko) Chrome/131.0.0.0 Safari/537.36",Macintosh,Chrome,131.0.0.0,OS X,10_15_7,https://r4rkvwmaag.cognition.run/,"en-US,en;q=0.9",497652388,<b>Correct!</b>,null,,,,,,,,,,,,,,,,
,null,fixation,html-keyboard-response,157,359160,0.0-3.0-0.4,16,3,11/13/24 19:46,0cc02849f3c5627fda6f0ea9655a2729,139.140.210.120,"Mozilla/5.0 (Macintosh; Intel Mac OS X 10_15_7) AppleWebKit/537.36 (KHTML, like Gecko) Chrome/131.0.0.0 Safari/537.36",Macintosh,Chrome,131.0.0.0,OS X,10_15_7,https://r4rkvwmaag.cognition.run/,"en-US,en;q=0.9",497652388,+,null,,,,,,,,,,,,,,,,
,null,image,image-keyboard-response,158,359666,0.0-3.0-1.4,16,3,11/13/24 19:46,0cc02849f3c5627fda6f0ea9655a2729,139.140.210.120,"Mozilla/5.0 (Macintosh; Intel Mac OS X 10_15_7) AppleWebKit/537.36 (KHTML, like Gecko) Chrome/131.0.0.0 Safari/537.36",Macintosh,Chrome,131.0.0.0,OS X,10_15_7,https://r4rkvwmaag.cognition.run/,"en-US,en;q=0.9",497652388,applehorse2.png,null,,,,,,,,,,,,,,,,
,null,prime,image-keyboard-response,159,360171,0.0-3.0-2.4,16,3,11/13/24 19:46,0cc02849f3c5627fda6f0ea9655a2729,139.140.210.120,"Mozilla/5.0 (Macintosh; Intel Mac OS X 10_15_7) AppleWebKit/537.36 (KHTML, like Gecko) Chrome/131.0.0.0 Safari/537.36",Macintosh,Chrome,131.0.0.0,OS X,10_15_7,https://r4rkvwmaag.cognition.run/,"en-US,en;q=0.9",497652388,applehorse2.png,null,,,,,,,,,,,,,,,,
,501,target,image-keyboard-response,160,360678,0.0-3.0-3.4,16,3,11/13/24 19:46,0cc02849f3c5627fda6f0ea9655a2729,139.140.210.120,"Mozilla/5.0 (Macintosh; Intel Mac OS X 10_15_7) AppleWebKit/537.36 (KHTML, like Gecko) Chrome/131.0.0.0 Safari/537.36",Macintosh,Chrome,131.0.0.0,OS X,10_15_7,https://r4rkvwmaag.cognition.run/,"en-US,en;q=0.9",497652388,applehorse2.png,l,,,TRUE,horse,boff,L,,,,,,,,,,
,null,feedback,html-keyboard-response,161,361684,0.0-3.0-4.4,16,3,11/13/24 19:46,0cc02849f3c5627fda6f0ea9655a2729,139.140.210.120,"Mozilla/5.0 (Macintosh; Intel Mac OS X 10_15_7) AppleWebKit/537.36 (KHTML, like Gecko) Chrome/131.0.0.0 Safari/537.36",Macintosh,Chrome,131.0.0.0,OS X,10_15_7,https://r4rkvwmaag.cognition.run/,"en-US,en;q=0.9",497652388,<b>Correct!</b>,null,,,,,,,,,,,,,,,,
,null,fixation,html-keyboard-response,162,361991,0.0-3.0-0.5,16,3,11/13/24 19:46,0cc02849f3c5627fda6f0ea9655a2729,139.140.210.120,"Mozilla/5.0 (Macintosh; Intel Mac OS X 10_15_7) AppleWebKit/537.36 (KHTML, like Gecko) Chrome/131.0.0.0 Safari/537.36",Macintosh,Chrome,131.0.0.0,OS X,10_15_7,https://r4rkvwmaag.cognition.run/,"en-US,en;q=0.9",497652388,+,null,,,,,,,,,,,,,,,,
,null,image,image-keyboard-response,163,362497,0.0-3.0-1.5,16,3,11/13/24 19:46,0cc02849f3c5627fda6f0ea9655a2729,139.140.210.120,"Mozilla/5.0 (Macintosh; Intel Mac OS X 10_15_7) AppleWebKit/537.36 (KHTML, like Gecko) Chrome/131.0.0.0 Safari/537.36",Macintosh,Chrome,131.0.0.0,OS X,10_15_7,https://r4rkvwmaag.cognition.run/,"en-US,en;q=0.9",497652388,applehorse2.png,null,,,,,,,,,,,,,,,,
,null,prime,image-keyboard-response,164,363004,0.0-3.0-2.5,16,3,11/13/24 19:46,0cc02849f3c5627fda6f0ea9655a2729,139.140.210.120,"Mozilla/5.0 (Macintosh; Intel Mac OS X 10_15_7) AppleWebKit/537.36 (KHTML, like Gecko) Chrome/131.0.0.0 Safari/537.36",Macintosh,Chrome,131.0.0.0,OS X,10_15_7,https://r4rkvwmaag.cognition.run/,"en-US,en;q=0.9",497652388,applehorse2.png,null,,,,,,,,,,,,,,,,
,479,target,image-keyboard-response,165,363488,0.0-3.0-3.5,16,3,11/13/24 19:46,0cc02849f3c5627fda6f0ea9655a2729,139.140.210.120,"Mozilla/5.0 (Macintosh; Intel Mac OS X 10_15_7) AppleWebKit/537.36 (KHTML, like Gecko) Chrome/131.0.0.0 Safari/537.36",Macintosh,Chrome,131.0.0.0,OS X,10_15_7,https://r4rkvwmaag.cognition.run/,"en-US,en;q=0.9",497652388,applehorse2.png,l,,,TRUE,horse,geck,L,,,,,,,,,,
,null,feedback,html-keyboard-response,166,364495,0.0-3.0-4.5,16,3,11/13/24 19:46,0cc02849f3c5627fda6f0ea9655a2729,139.140.210.120,"Mozilla/5.0 (Macintosh; Intel Mac OS X 10_15_7) AppleWebKit/537.36 (KHTML, like Gecko) Chrome/131.0.0.0 Safari/537.36",Macintosh,Chrome,131.0.0.0,OS X,10_15_7,https://r4rkvwmaag.cognition.run/,"en-US,en;q=0.9",497652388,<b>Correct!</b>,null,,,,,,,,,,,,,,,,
,null,fixation,html-keyboard-response,167,364802,0.0-3.0-0.6,16,3,11/13/24 19:46,0cc02849f3c5627fda6f0ea9655a2729,139.140.210.120,"Mozilla/5.0 (Macintosh; Intel Mac OS X 10_15_7) AppleWebKit/537.36 (KHTML, like Gecko) Chrome/131.0.0.0 Safari/537.36",Macintosh,Chrome,131.0.0.0,OS X,10_15_7,https://r4rkvwmaag.cognition.run/,"en-US,en;q=0.9",497652388,+,null,,,,,,,,,,,,,,,,
,null,image,image-keyboard-response,168,365311,0.0-3.0-1.6,16,3,11/13/24 19:46,0cc02849f3c5627fda6f0ea9655a2729,139.140.210.120,"Mozilla/5.0 (Macintosh; Intel Mac OS X 10_15_7) AppleWebKit/537.36 (KHTML, like Gecko) Chrome/131.0.0.0 Safari/537.36",Macintosh,Chrome,131.0.0.0,OS X,10_15_7,https://r4rkvwmaag.cognition.run/,"en-US,en;q=0.9",497652388,applehorse2.png,null,,,,,,,,,,,,,,,,
,null,prime,image-keyboard-response,169,365817,0.0-3.0-2.6,16,3,11/13/24 19:46,0cc02849f3c5627fda6f0ea9655a2729,139.140.210.120,"Mozilla/5.0 (Macintosh; Intel Mac OS X 10_15_7) AppleWebKit/537.36 (KHTML, like Gecko) Chrome/131.0.0.0 Safari/537.36",Macintosh,Chrome,131.0.0.0,OS X,10_15_7,https://r4rkvwmaag.cognition.run/,"en-US,en;q=0.9",497652388,applehorse2.png,null,,,,,,,,,,,,,,,,
,529,target,image-keyboard-response,170,366353,0.0-3.0-3.6,16,3,11/13/24 19:46,0cc02849f3c5627fda6f0ea9655a2729,139.140.210.120,"Mozilla/5.0 (Macintosh; Intel Mac OS X 10_15_7) AppleWebKit/537.36 (KHTML, like Gecko) Chrome/131.0.0.0 Safari/537.36",Macintosh,Chrome,131.0.0.0,OS X,10_15_7,https://r4rkvwmaag.cognition.run/,"en-US,en;q=0.9",497652388,applehorse2.png,a,,,TRUE,apple,geck,A,,,,,,,,,,
,null,feedback,html-keyboard-response,171,367359,0.0-3.0-4.6,16,3,11/13/24 19:46,0cc02849f3c5627fda6f0ea9655a2729,139.140.210.120,"Mozilla/5.0 (Macintosh; Intel Mac OS X 10_15_7) AppleWebKit/537.36 (KHTML, like Gecko) Chrome/131.0.0.0 Safari/537.36",Macintosh,Chrome,131.0.0.0,OS X,10_15_7,https://r4rkvwmaag.cognition.run/,"en-US,en;q=0.9",497652388,<b>Correct!</b>,null,,,,,,,,,,,,,,,,
,null,fixation,html-keyboard-response,172,367664,0.0-3.0-0.7,16,3,11/13/24 19:46,0cc02849f3c5627fda6f0ea9655a2729,139.140.210.120,"Mozilla/5.0 (Macintosh; Intel Mac OS X 10_15_7) AppleWebKit/537.36 (KHTML, like Gecko) Chrome/131.0.0.0 Safari/537.36",Macintosh,Chrome,131.0.0.0,OS X,10_15_7,https://r4rkvwmaag.cognition.run/,"en-US,en;q=0.9",497652388,+,null,,,,,,,,,,,,,,,,
,null,image,image-keyboard-response,173,368170,0.0-3.0-1.7,16,3,11/13/24 19:46,0cc02849f3c5627fda6f0ea9655a2729,139.140.210.120,"Mozilla/5.0 (Macintosh; Intel Mac OS X 10_15_7) AppleWebKit/537.36 (KHTML, like Gecko) Chrome/131.0.0.0 Safari/537.36",Macintosh,Chrome,131.0.0.0,OS X,10_15_7,https://r4rkvwmaag.cognition.run/,"en-US,en;q=0.9",497652388,horseapple2.png,null,,,,,,,,,,,,,,,,
,null,prime,image-keyboard-response,174,368677,0.0-3.0-2.7,16,3,11/13/24 19:46,0cc02849f3c5627fda6f0ea9655a2729,139.140.210.120,"Mozilla/5.0 (Macintosh; Intel Mac OS X 10_15_7) AppleWebKit/537.36 (KHTML, like Gecko) Chrome/131.0.0.0 Safari/537.36",Macintosh,Chrome,131.0.0.0,OS X,10_15_7,https://r4rkvwmaag.cognition.run/,"en-US,en;q=0.9",497652388,horseapple2.png,null,,,,,,,,,,,,,,,,
,427,target,image-keyboard-response,175,369112,0.0-3.0-3.7,16,3,11/13/24 19:46,0cc02849f3c5627fda6f0ea9655a2729,139.140.210.120,"Mozilla/5.0 (Macintosh; Intel Mac OS X 10_15_7) AppleWebKit/537.36 (KHTML, like Gecko) Chrome/131.0.0.0 Safari/537.36",Macintosh,Chrome,131.0.0.0,OS X,10_15_7,https://r4rkvwmaag.cognition.run/,"en-US,en;q=0.9",497652388,horseapple2.png,l,,,TRUE,apple,mipp,L,,,,,,,,,,
,null,feedback,html-keyboard-response,176,370119,0.0-3.0-4.7,16,3,11/13/24 19:46,0cc02849f3c5627fda6f0ea9655a2729,139.140.210.120,"Mozilla/5.0 (Macintosh; Intel Mac OS X 10_15_7) AppleWebKit/537.36 (KHTML, like Gecko) Chrome/131.0.0.0 Safari/537.36",Macintosh,Chrome,131.0.0.0,OS X,10_15_7,https://r4rkvwmaag.cognition.run/,"en-US,en;q=0.9",497652388,<b>Correct!</b>,null,,,,,,,,,,,,,,,,
,null,fixation,html-keyboard-response,177,370426,0.0-3.0-0.8,16,3,11/13/24 19:46,0cc02849f3c5627fda6f0ea9655a2729,139.140.210.120,"Mozilla/5.0 (Macintosh; Intel Mac OS X 10_15_7) AppleWebKit/537.36 (KHTML, like Gecko) Chrome/131.0.0.0 Safari/537.36",Macintosh,Chrome,131.0.0.0,OS X,10_15_7,https://r4rkvwmaag.cognition.run/,"en-US,en;q=0.9",497652388,+,null,,,,,,,,,,,,,,,,
,null,image,image-keyboard-response,178,370933,0.0-3.0-1.8,16,3,11/13/24 19:46,0cc02849f3c5627fda6f0ea9655a2729,139.140.210.120,"Mozilla/5.0 (Macintosh; Intel Mac OS X 10_15_7) AppleWebKit/537.36 (KHTML, like Gecko) Chrome/131.0.0.0 Safari/537.36",Macintosh,Chrome,131.0.0.0,OS X,10_15_7,https://r4rkvwmaag.cognition.run/,"en-US,en;q=0.9",497652388,applehorse2.png,null,,,,,,,,,,,,,,,,
,null,prime,image-keyboard-response,179,371441,0.0-3.0-2.8,16,3,11/13/24 19:46,0cc02849f3c5627fda6f0ea9655a2729,139.140.210.120,"Mozilla/5.0 (Macintosh; Intel Mac OS X 10_15_7) AppleWebKit/537.36 (KHTML, like Gecko) Chrome/131.0.0.0 Safari/537.36",Macintosh,Chrome,131.0.0.0,OS X,10_15_7,https://r4rkvwmaag.cognition.run/,"en-US,en;q=0.9",497652388,applehorse2.png,null,,,,,,,,,,,,,,,,
,446,target,image-keyboard-response,180,371894,0.0-3.0-3.8,16,3,11/13/24 19:46,0cc02849f3c5627fda6f0ea9655a2729,139.140.210.120,"Mozilla/5.0 (Macintosh; Intel Mac OS X 10_15_7) AppleWebKit/537.36 (KHTML, like Gecko) Chrome/131.0.0.0 Safari/537.36",Macintosh,Chrome,131.0.0.0,OS X,10_15_7,https://r4rkvwmaag.cognition.run/,"en-US,en;q=0.9",497652388,applehorse2.png,a,,,TRUE,apple,mipp,A,,,,,,,,,,
,null,feedback,html-keyboard-response,181,372900,0.0-3.0-4.8,16,3,11/13/24 19:46,0cc02849f3c5627fda6f0ea9655a2729,139.140.210.120,"Mozilla/5.0 (Macintosh; Intel Mac OS X 10_15_7) AppleWebKit/537.36 (KHTML, like Gecko) Chrome/131.0.0.0 Safari/537.36",Macintosh,Chrome,131.0.0.0,OS X,10_15_7,https://r4rkvwmaag.cognition.run/,"en-US,en;q=0.9",497652388,<b>Correct!</b>,null,,,,,,,,,,,,,,,,
,null,fixation,html-keyboard-response,182,373208,0.0-4.0-0.0,16,3,11/13/24 19:46,0cc02849f3c5627fda6f0ea9655a2729,139.140.210.120,"Mozilla/5.0 (Macintosh; Intel Mac OS X 10_15_7) AppleWebKit/537.36 (KHTML, like Gecko) Chrome/131.0.0.0 Safari/537.36",Macintosh,Chrome,131.0.0.0,OS X,10_15_7,https://r4rkvwmaag.cognition.run/,"en-US,en;q=0.9",497652388,+,null,,,,,,,,,,,,,,,,
,null,image,image-keyboard-response,183,373718,0.0-4.0-1.0,16,3,11/13/24 19:46,0cc02849f3c5627fda6f0ea9655a2729,139.140.210.120,"Mozilla/5.0 (Macintosh; Intel Mac OS X 10_15_7) AppleWebKit/537.36 (KHTML, like Gecko) Chrome/131.0.0.0 Safari/537.36",Macintosh,Chrome,131.0.0.0,OS X,10_15_7,https://r4rkvwmaag.cognition.run/,"en-US,en;q=0.9",497652388,applehorse2.png,null,,,,,,,,,,,,,,,,
,null,prime,image-keyboard-response,184,374226,0.0-4.0-2.0,16,3,11/13/24 19:46,0cc02849f3c5627fda6f0ea9655a2729,139.140.210.120,"Mozilla/5.0 (Macintosh; Intel Mac OS X 10_15_7) AppleWebKit/537.36 (KHTML, like Gecko) Chrome/131.0.0.0 Safari/537.36",Macintosh,Chrome,131.0.0.0,OS X,10_15_7,https://r4rkvwmaag.cognition.run/,"en-US,en;q=0.9",497652388,applehorse2.png,null,,,,,,,,,,,,,,,,
,513,target,image-keyboard-response,185,374742,0.0-4.0-3.0,16,3,11/13/24 19:46,0cc02849f3c5627fda6f0ea9655a2729,139.140.210.120,"Mozilla/5.0 (Macintosh; Intel Mac OS X 10_15_7) AppleWebKit/537.36 (KHTML, like Gecko) Chrome/131.0.0.0 Safari/537.36",Macintosh,Chrome,131.0.0.0,OS X,10_15_7,https://r4rkvwmaag.cognition.run/,"en-US,en;q=0.9",497652388,applehorse2.png,a,,,TRUE,apple,dodish,A,,,,,,,,,,
,null,fixation,html-keyboard-response,186,375046,0.0-4.0-0.1,16,3,11/13/24 19:46,0cc02849f3c5627fda6f0ea9655a2729,139.140.210.120,"Mozilla/5.0 (Macintosh; Intel Mac OS X 10_15_7) AppleWebKit/537.36 (KHTML, like Gecko) Chrome/131.0.0.0 Safari/537.36",Macintosh,Chrome,131.0.0.0,OS X,10_15_7,https://r4rkvwmaag.cognition.run/,"en-US,en;q=0.9",497652388,+,null,,,,,,,,,,,,,,,,
,null,image,image-keyboard-response,187,375554,0.0-4.0-1.1,16,3,11/13/24 19:46,0cc02849f3c5627fda6f0ea9655a2729,139.140.210.120,"Mozilla/5.0 (Macintosh; Intel Mac OS X 10_15_7) AppleWebKit/537.36 (KHTML, like Gecko) Chrome/131.0.0.0 Safari/537.36",Macintosh,Chrome,131.0.0.0,OS X,10_15_7,https://r4rkvwmaag.cognition.run/,"en-US,en;q=0.9",497652388,applehorse2.png,null,,,,,,,,,,,,,,,,
,null,prime,image-keyboard-response,188,376061,0.0-4.0-2.1,16,3,11/13/24 19:46,0cc02849f3c5627fda6f0ea9655a2729,139.140.210.120,"Mozilla/5.0 (Macintosh; Intel Mac OS X 10_15_7) AppleWebKit/537.36 (KHTML, like Gecko) Chrome/131.0.0.0 Safari/537.36",Macintosh,Chrome,131.0.0.0,OS X,10_15_7,https://r4rkvwmaag.cognition.run/,"en-US,en;q=0.9",497652388,applehorse2.png,null,,,,,,,,,,,,,,,,
,530,target,image-keyboard-response,189,376598,0.0-4.0-3.1,16,3,11/13/24 19:46,0cc02849f3c5627fda6f0ea9655a2729,139.140.210.120,"Mozilla/5.0 (Macintosh; Intel Mac OS X 10_15_7) AppleWebKit/537.36 (KHTML, like Gecko) Chrome/131.0.0.0 Safari/537.36",Macintosh,Chrome,131.0.0.0,OS X,10_15_7,https://r4rkvwmaag.cognition.run/,"en-US,en;q=0.9",497652388,applehorse2.png,a,,,TRUE,apple,mipp,A,,,,,,,,,,
,null,fixation,html-keyboard-response,190,376904,0.0-4.0-0.2,16,3,11/13/24 19:46,0cc02849f3c5627fda6f0ea9655a2729,139.140.210.120,"Mozilla/5.0 (Macintosh; Intel Mac OS X 10_15_7) AppleWebKit/537.36 (KHTML, like Gecko) Chrome/131.0.0.0 Safari/537.36",Macintosh,Chrome,131.0.0.0,OS X,10_15_7,https://r4rkvwmaag.cognition.run/,"en-US,en;q=0.9",497652388,+,null,,,,,,,,,,,,,,,,
,null,image,image-keyboard-response,191,377411,0.0-4.0-1.2,16,3,11/13/24 19:46,0cc02849f3c5627fda6f0ea9655a2729,139.140.210.120,"Mozilla/5.0 (Macintosh; Intel Mac OS X 10_15_7) AppleWebKit/537.36 (KHTML, like Gecko) Chrome/131.0.0.0 Safari/537.36",Macintosh,Chrome,131.0.0.0,OS X,10_15_7,https://r4rkvwmaag.cognition.run/,"en-US,en;q=0.9",497652388,applehorse2.png,null,,,,,,,,,,,,,,,,
,null,prime,image-keyboard-response,192,377919,0.0-4.0-2.2,16,3,11/13/24 19:46,0cc02849f3c5627fda6f0ea9655a2729,139.140.210.120,"Mozilla/5.0 (Macintosh; Intel Mac OS X 10_15_7) AppleWebKit/537.36 (KHTML, like Gecko) Chrome/131.0.0.0 Safari/537.36",Macintosh,Chrome,131.0.0.0,OS X,10_15_7,https://r4rkvwmaag.cognition.run/,"en-US,en;q=0.9",497652388,applehorse2.png,null,,,,,,,,,,,,,,,,
,419,target,image-keyboard-response,193,378345,0.0-4.0-3.2,16,3,11/13/24 19:46,0cc02849f3c5627fda6f0ea9655a2729,139.140.210.120,"Mozilla/5.0 (Macintosh; Intel Mac OS X 10_15_7) AppleWebKit/537.36 (KHTML, like Gecko) Chrome/131.0.0.0 Safari/537.36",Macintosh,Chrome,131.0.0.0,OS X,10_15_7,https://r4rkvwmaag.cognition.run/,"en-US,en;q=0.9",497652388,applehorse2.png,a,,,TRUE,apple,mipp,A,,,,,,,,,,
,null,fixation,html-keyboard-response,194,378650,0.0-4.0-0.3,16,3,11/13/24 19:46,0cc02849f3c5627fda6f0ea9655a2729,139.140.210.120,"Mozilla/5.0 (Macintosh; Intel Mac OS X 10_15_7) AppleWebKit/537.36 (KHTML, like Gecko) Chrome/131.0.0.0 Safari/537.36",Macintosh,Chrome,131.0.0.0,OS X,10_15_7,https://r4rkvwmaag.cognition.run/,"en-US,en;q=0.9",497652388,+,null,,,,,,,,,,,,,,,,
,null,image,image-keyboard-response,195,379157,0.0-4.0-1.3,16,3,11/13/24 19:46,0cc02849f3c5627fda6f0ea9655a2729,139.140.210.120,"Mozilla/5.0 (Macintosh; Intel Mac OS X 10_15_7) AppleWebKit/537.36 (KHTML, like Gecko) Chrome/131.0.0.0 Safari/537.36",Macintosh,Chrome,131.0.0.0,OS X,10_15_7,https://r4rkvwmaag.cognition.run/,"en-US,en;q=0.9",497652388,horseapple2.png,null,,,,,,,,,,,,,,,,
,null,prime,image-keyboard-response,196,379665,0.0-4.0-2.3,16,3,11/13/24 19:46,0cc02849f3c5627fda6f0ea9655a2729,139.140.210.120,"Mozilla/5.0 (Macintosh; Intel Mac OS X 10_15_7) AppleWebKit/537.36 (KHTML, like Gecko) Chrome/131.0.0.0 Safari/537.36",Macintosh,Chrome,131.0.0.0,OS X,10_15_7,https://r4rkvwmaag.cognition.run/,"en-US,en;q=0.9",497652388,horseapple2.png,null,,,,,,,,,,,,,,,,
,495,target,image-keyboard-response,197,380167,0.0-4.0-3.3,16,3,11/13/24 19:46,0cc02849f3c5627fda6f0ea9655a2729,139.140.210.120,"Mozilla/5.0 (Macintosh; Intel Mac OS X 10_15_7) AppleWebKit/537.36 (KHTML, like Gecko) Chrome/131.0.0.0 Safari/537.36",Macintosh,Chrome,131.0.0.0,OS X,10_15_7,https://r4rkvwmaag.cognition.run/,"en-US,en;q=0.9",497652388,horseapple2.png,a,,,TRUE,horse,foobly,A,,,,,,,,,,
,null,fixation,html-keyboard-response,198,380473,0.0-4.0-0.4,16,3,11/13/24 19:46,0cc02849f3c5627fda6f0ea9655a2729,139.140.210.120,"Mozilla/5.0 (Macintosh; Intel Mac OS X 10_15_7) AppleWebKit/537.36 (KHTML, like Gecko) Chrome/131.0.0.0 Safari/537.36",Macintosh,Chrome,131.0.0.0,OS X,10_15_7,https://r4rkvwmaag.cognition.run/,"en-US,en;q=0.9",497652388,+,null,,,,,,,,,,,,,,,,
,null,image,image-keyboard-response,199,380980,0.0-4.0-1.4,16,3,11/13/24 19:46,0cc02849f3c5627fda6f0ea9655a2729,139.140.210.120,"Mozilla/5.0 (Macintosh; Intel Mac OS X 10_15_7) AppleWebKit/537.36 (KHTML, like Gecko) Chrome/131.0.0.0 Safari/537.36",Macintosh,Chrome,131.0.0.0,OS X,10_15_7,https://r4rkvwmaag.cognition.run/,"en-US,en;q=0.9",497652388,applehorse2.png,null,,,,,,,,,,,,,,,,
,null,prime,image-keyboard-response,200,381489,0.0-4.0-2.4,16,3,11/13/24 19:46,0cc02849f3c5627fda6f0ea9655a2729,139.140.210.120,"Mozilla/5.0 (Macintosh; Intel Mac OS X 10_15_7) AppleWebKit/537.36 (KHTML, like Gecko) Chrome/131.0.0.0 Safari/537.36",Macintosh,Chrome,131.0.0.0,OS X,10_15_7,https://r4rkvwmaag.cognition.run/,"en-US,en;q=0.9",497652388,applehorse2.png,null,,,,,,,,,,,,,,,,
,486,target,image-keyboard-response,201,381981,0.0-4.0-3.4,16,3,11/13/24 19:46,0cc02849f3c5627fda6f0ea9655a2729,139.140.210.120,"Mozilla/5.0 (Macintosh; Intel Mac OS X 10_15_7) AppleWebKit/537.36 (KHTML, like Gecko) Chrome/131.0.0.0 Safari/537.36",Macintosh,Chrome,131.0.0.0,OS X,10_15_7,https://r4rkvwmaag.cognition.run/,"en-US,en;q=0.9",497652388,applehorse2.png,l,,,TRUE,horse,mipp,L,,,,,,,,,,
,null,fixation,html-keyboard-response,202,382288,0.0-4.0-0.5,16,3,11/13/24 19:46,0cc02849f3c5627fda6f0ea9655a2729,139.140.210.120,"Mozilla/5.0 (Macintosh; Intel Mac OS X 10_15_7) AppleWebKit/537.36 (KHTML, like Gecko) Chrome/131.0.0.0 Safari/537.36",Macintosh,Chrome,131.0.0.0,OS X,10_15_7,https://r4rkvwmaag.cognition.run/,"en-US,en;q=0.9",497652388,+,null,,,,,,,,,,,,,,,,
,null,image,image-keyboard-response,203,382795,0.0-4.0-1.5,16,3,11/13/24 19:46,0cc02849f3c5627fda6f0ea9655a2729,139.140.210.120,"Mozilla/5.0 (Macintosh; Intel Mac OS X 10_15_7) AppleWebKit/537.36 (KHTML, like Gecko) Chrome/131.0.0.0 Safari/537.36",Macintosh,Chrome,131.0.0.0,OS X,10_15_7,https://r4rkvwmaag.cognition.run/,"en-US,en;q=0.9",497652388,applehorse2.png,null,,,,,,,,,,,,,,,,
,null,prime,image-keyboard-response,204,383304,0.0-4.0-2.5,16,3,11/13/24 19:46,0cc02849f3c5627fda6f0ea9655a2729,139.140.210.120,"Mozilla/5.0 (Macintosh; Intel Mac OS X 10_15_7) AppleWebKit/537.36 (KHTML, like Gecko) Chrome/131.0.0.0 Safari/537.36",Macintosh,Chrome,131.0.0.0,OS X,10_15_7,https://r4rkvwmaag.cognition.run/,"en-US,en;q=0.9",497652388,applehorse2.png,null,,,,,,,,,,,,,,,,
,388,target,image-keyboard-response,205,383698,0.0-4.0-3.5,16,3,11/13/24 19:46,0cc02849f3c5627fda6f0ea9655a2729,139.140.210.120,"Mozilla/5.0 (Macintosh; Intel Mac OS X 10_15_7) AppleWebKit/537.36 (KHTML, like Gecko) Chrome/131.0.0.0 Safari/537.36",Macintosh,Chrome,131.0.0.0,OS X,10_15_7,https://r4rkvwmaag.cognition.run/,"en-US,en;q=0.9",497652388,applehorse2.png,l,,,TRUE,horse,geck,L,,,,,,,,,,
,null,fixation,html-keyboard-response,206,384003,0.0-4.0-0.6,16,3,11/13/24 19:46,0cc02849f3c5627fda6f0ea9655a2729,139.140.210.120,"Mozilla/5.0 (Macintosh; Intel Mac OS X 10_15_7) AppleWebKit/537.36 (KHTML, like Gecko) Chrome/131.0.0.0 Safari/537.36",Macintosh,Chrome,131.0.0.0,OS X,10_15_7,https://r4rkvwmaag.cognition.run/,"en-US,en;q=0.9",497652388,+,null,,,,,,,,,,,,,,,,
,null,image,image-keyboard-response,207,384512,0.0-4.0-1.6,16,3,11/13/24 19:46,0cc02849f3c5627fda6f0ea9655a2729,139.140.210.120,"Mozilla/5.0 (Macintosh; Intel Mac OS X 10_15_7) AppleWebKit/537.36 (KHTML, like Gecko) Chrome/131.0.0.0 Safari/537.36",Macintosh,Chrome,131.0.0.0,OS X,10_15_7,https://r4rkvwmaag.cognition.run/,"en-US,en;q=0.9",497652388,horseapple2.png,null,,,,,,,,,,,,,,,,
,null,prime,image-keyboard-response,208,385019,0.0-4.0-2.6,16,3,11/13/24 19:46,0cc02849f3c5627fda6f0ea9655a2729,139.140.210.120,"Mozilla/5.0 (Macintosh; Intel Mac OS X 10_15_7) AppleWebKit/537.36 (KHTML, like Gecko) Chrome/131.0.0.0 Safari/537.36",Macintosh,Chrome,131.0.0.0,OS X,10_15_7,https://r4rkvwmaag.cognition.run/,"en-US,en;q=0.9",497652388,horseapple2.png,null,,,,,,,,,,,,,,,,
,467,target,image-keyboard-response,209,385493,0.0-4.0-3.6,16,3,11/13/24 19:46,0cc02849f3c5627fda6f0ea9655a2729,139.140.210.120,"Mozilla/5.0 (Macintosh; Intel Mac OS X 10_15_7) AppleWebKit/537.36 (KHTML, like Gecko) Chrome/131.0.0.0 Safari/537.36",Macintosh,Chrome,131.0.0.0,OS X,10_15_7,https://r4rkvwmaag.cognition.run/,"en-US,en;q=0.9",497652388,horseapple2.png,l,,,TRUE,apple,foobly,L,,,,,,,,,,
,null,fixation,html-keyboard-response,210,385799,0.0-4.0-0.7,16,3,11/13/24 19:46,0cc02849f3c5627fda6f0ea9655a2729,139.140.210.120,"Mozilla/5.0 (Macintosh; Intel Mac OS X 10_15_7) AppleWebKit/537.36 (KHTML, like Gecko) Chrome/131.0.0.0 Safari/537.36",Macintosh,Chrome,131.0.0.0,OS X,10_15_7,https://r4rkvwmaag.cognition.run/,"en-US,en;q=0.9",497652388,+,null,,,,,,,,,,,,,,,,
,null,image,image-keyboard-response,211,386307,0.0-4.0-1.7,16,3,11/13/24 19:46,0cc02849f3c5627fda6f0ea9655a2729,139.140.210.120,"Mozilla/5.0 (Macintosh; Intel Mac OS X 10_15_7) AppleWebKit/537.36 (KHTML, like Gecko) Chrome/131.0.0.0 Safari/537.36",Macintosh,Chrome,131.0.0.0,OS X,10_15_7,https://r4rkvwmaag.cognition.run/,"en-US,en;q=0.9",497652388,applehorse2.png,null,,,,,,,,,,,,,,,,
,null,prime,image-keyboard-response,212,386814,0.0-4.0-2.7,16,3,11/13/24 19:46,0cc02849f3c5627fda6f0ea9655a2729,139.140.210.120,"Mozilla/5.0 (Macintosh; Intel Mac OS X 10_15_7) AppleWebKit/537.36 (KHTML, like Gecko) Chrome/131.0.0.0 Safari/537.36",Macintosh,Chrome,131.0.0.0,OS X,10_15_7,https://r4rkvwmaag.cognition.run/,"en-US,en;q=0.9",497652388,applehorse2.png,null,,,,,,,,,,,,,,,,
,465,target,image-keyboard-response,213,387283,0.0-4.0-3.7,16,3,11/13/24 19:46,0cc02849f3c5627fda6f0ea9655a2729,139.140.210.120,"Mozilla/5.0 (Macintosh; Intel Mac OS X 10_15_7) AppleWebKit/537.36 (KHTML, like Gecko) Chrome/131.0.0.0 Safari/537.36",Macintosh,Chrome,131.0.0.0,OS X,10_15_7,https://r4rkvwmaag.cognition.run/,"en-US,en;q=0.9",497652388,applehorse2.png,a,,,TRUE,apple,foobly,A,,,,,,,,,,
,null,fixation,html-keyboard-response,214,387589,0.0-4.0-0.8,16,3,11/13/24 19:46,0cc02849f3c5627fda6f0ea9655a2729,139.140.210.120,"Mozilla/5.0 (Macintosh; Intel Mac OS X 10_15_7) AppleWebKit/537.36 (KHTML, like Gecko) Chrome/131.0.0.0 Safari/537.36",Macintosh,Chrome,131.0.0.0,OS X,10_15_7,https://r4rkvwmaag.cognition.run/,"en-US,en;q=0.9",497652388,+,null,,,,,,,,,,,,,,,,
,null,image,image-keyboard-response,215,388100,0.0-4.0-1.8,16,3,11/13/24 19:46,0cc02849f3c5627fda6f0ea9655a2729,139.140.210.120,"Mozilla/5.0 (Macintosh; Intel Mac OS X 10_15_7) AppleWebKit/537.36 (KHTML, like Gecko) Chrome/131.0.0.0 Safari/537.36",Macintosh,Chrome,131.0.0.0,OS X,10_15_7,https://r4rkvwmaag.cognition.run/,"en-US,en;q=0.9",497652388,applehorse2.png,null,,,,,,,,,,,,,,,,
,null,prime,image-keyboard-response,216,388608,0.0-4.0-2.8,16,3,11/13/24 19:46,0cc02849f3c5627fda6f0ea9655a2729,139.140.210.120,"Mozilla/5.0 (Macintosh; Intel Mac OS X 10_15_7) AppleWebKit/537.36 (KHTML, like Gecko) Chrome/131.0.0.0 Safari/537.36",Macintosh,Chrome,131.0.0.0,OS X,10_15_7,https://r4rkvwmaag.cognition.run/,"en-US,en;q=0.9",497652388,applehorse2.png,null,,,,,,,,,,,,,,,,
,455,target,image-keyboard-response,217,389070,0.0-4.0-3.8,16,3,11/13/24 19:46,0cc02849f3c5627fda6f0ea9655a2729,139.140.210.120,"Mozilla/5.0 (Macintosh; Intel Mac OS X 10_15_7) AppleWebKit/537.36 (KHTML, like Gecko) Chrome/131.0.0.0 Safari/537.36",Macintosh,Chrome,131.0.0.0,OS X,10_15_7,https://r4rkvwmaag.cognition.run/,"en-US,en;q=0.9",497652388,applehorse2.png,a,,,TRUE,apple,nuppical,A,,,,,,,,,,
,null,fixation,html-keyboard-response,218,389376,0.0-4.0-0.9,16,3,11/13/24 19:46,0cc02849f3c5627fda6f0ea9655a2729,139.140.210.120,"Mozilla/5.0 (Macintosh; Intel Mac OS X 10_15_7) AppleWebKit/537.36 (KHTML, like Gecko) Chrome/131.0.0.0 Safari/537.36",Macintosh,Chrome,131.0.0.0,OS X,10_15_7,https://r4rkvwmaag.cognition.run/,"en-US,en;q=0.9",497652388,+,null,,,,,,,,,,,,,,,,
,null,image,image-keyboard-response,219,389885,0.0-4.0-1.9,16,3,11/13/24 19:46,0cc02849f3c5627fda6f0ea9655a2729,139.140.210.120,"Mozilla/5.0 (Macintosh; Intel Mac OS X 10_15_7) AppleWebKit/537.36 (KHTML, like Gecko) Chrome/131.0.0.0 Safari/537.36",Macintosh,Chrome,131.0.0.0,OS X,10_15_7,https://r4rkvwmaag.cognition.run/,"en-US,en;q=0.9",497652388,horseapple2.png,null,,,,,,,,,,,,,,,,
,null,prime,image-keyboard-response,220,390392,0.0-4.0-2.9,16,3,11/13/24 19:46,0cc02849f3c5627fda6f0ea9655a2729,139.140.210.120,"Mozilla/5.0 (Macintosh; Intel Mac OS X 10_15_7) AppleWebKit/537.36 (KHTML, like Gecko) Chrome/131.0.0.0 Safari/537.36",Macintosh,Chrome,131.0.0.0,OS X,10_15_7,https://r4rkvwmaag.cognition.run/,"en-US,en;q=0.9",497652388,horseapple2.png,null,,,,,,,,,,,,,,,,
,371,target,image-keyboard-response,221,390769,0.0-4.0-3.9,16,3,11/13/24 19:46,0cc02849f3c5627fda6f0ea9655a2729,139.140.210.120,"Mozilla/5.0 (Macintosh; Intel Mac OS X 10_15_7) AppleWebKit/537.36 (KHTML, like Gecko) Chrome/131.0.0.0 Safari/537.36",Macintosh,Chrome,131.0.0.0,OS X,10_15_7,https://r4rkvwmaag.cognition.run/,"en-US,en;q=0.9",497652388,horseapple2.png,a,,,FALSE,apple,geck,L,,,,,,,,,,
,null,fixation,html-keyboard-response,222,391075,0.0-4.0-0.10,16,3,11/13/24 19:46,0cc02849f3c5627fda6f0ea9655a2729,139.140.210.120,"Mozilla/5.0 (Macintosh; Intel Mac OS X 10_15_7) AppleWebKit/537.36 (KHTML, like Gecko) Chrome/131.0.0.0 Safari/537.36",Macintosh,Chrome,131.0.0.0,OS X,10_15_7,https://r4rkvwmaag.cognition.run/,"en-US,en;q=0.9",497652388,+,null,,,,,,,,,,,,,,,,
,null,image,image-keyboard-response,223,391583,0.0-4.0-1.10,16,3,11/13/24 19:46,0cc02849f3c5627fda6f0ea9655a2729,139.140.210.120,"Mozilla/5.0 (Macintosh; Intel Mac OS X 10_15_7) AppleWebKit/537.36 (KHTML, like Gecko) Chrome/131.0.0.0 Safari/537.36",Macintosh,Chrome,131.0.0.0,OS X,10_15_7,https://r4rkvwmaag.cognition.run/,"en-US,en;q=0.9",497652388,horseapple2.png,null,,,,,,,,,,,,,,,,
,null,prime,image-keyboard-response,224,392091,0.0-4.0-2.10,16,3,11/13/24 19:46,0cc02849f3c5627fda6f0ea9655a2729,139.140.210.120,"Mozilla/5.0 (Macintosh; Intel Mac OS X 10_15_7) AppleWebKit/537.36 (KHTML, like Gecko) Chrome/131.0.0.0 Safari/537.36",Macintosh,Chrome,131.0.0.0,OS X,10_15_7,https://r4rkvwmaag.cognition.run/,"en-US,en;q=0.9",497652388,horseapple2.png,null,,,,,,,,,,,,,,,,
,504,target,image-keyboard-response,225,392602,0.0-4.0-3.10,16,3,11/13/24 19:46,0cc02849f3c5627fda6f0ea9655a2729,139.140.210.120,"Mozilla/5.0 (Macintosh; Intel Mac OS X 10_15_7) AppleWebKit/537.36 (KHTML, like Gecko) Chrome/131.0.0.0 Safari/537.36",Macintosh,Chrome,131.0.0.0,OS X,10_15_7,https://r4rkvwmaag.cognition.run/,"en-US,en;q=0.9",497652388,horseapple2.png,l,,,TRUE,apple,mipp,L,,,,,,,,,,
,null,fixation,html-keyboard-response,226,392907,0.0-4.0-0.11,16,3,11/13/24 19:46,0cc02849f3c5627fda6f0ea9655a2729,139.140.210.120,"Mozilla/5.0 (Macintosh; Intel Mac OS X 10_15_7) AppleWebKit/537.36 (KHTML, like Gecko) Chrome/131.0.0.0 Safari/537.36",Macintosh,Chrome,131.0.0.0,OS X,10_15_7,https://r4rkvwmaag.cognition.run/,"en-US,en;q=0.9",497652388,+,null,,,,,,,,,,,,,,,,
,null,image,image-keyboard-response,227,393416,0.0-4.0-1.11,16,3,11/13/24 19:46,0cc02849f3c5627fda6f0ea9655a2729,139.140.210.120,"Mozilla/5.0 (Macintosh; Intel Mac OS X 10_15_7) AppleWebKit/537.36 (KHTML, like Gecko) Chrome/131.0.0.0 Safari/537.36",Macintosh,Chrome,131.0.0.0,OS X,10_15_7,https://r4rkvwmaag.cognition.run/,"en-US,en;q=0.9",497652388,applehorse2.png,null,,,,,,,,,,,,,,,,
,null,prime,image-keyboard-response,228,393923,0.0-4.0-2.11,16,3,11/13/24 19:46,0cc02849f3c5627fda6f0ea9655a2729,139.140.210.120,"Mozilla/5.0 (Macintosh; Intel Mac OS X 10_15_7) AppleWebKit/537.36 (KHTML, like Gecko) Chrome/131.0.0.0 Safari/537.36",Macintosh,Chrome,131.0.0.0,OS X,10_15_7,https://r4rkvwmaag.cognition.run/,"en-US,en;q=0.9",497652388,applehorse2.png,null,,,,,,,,,,,,,,,,
,377,target,image-keyboard-response,229,394307,0.0-4.0-3.11,16,3,11/13/24 19:46,0cc02849f3c5627fda6f0ea9655a2729,139.140.210.120,"Mozilla/5.0 (Macintosh; Intel Mac OS X 10_15_7) AppleWebKit/537.36 (KHTML, like Gecko) Chrome/131.0.0.0 Safari/537.36",Macintosh,Chrome,131.0.0.0,OS X,10_15_7,https://r4rkvwmaag.cognition.run/,"en-US,en;q=0.9",497652388,applehorse2.png,l,,,TRUE,horse,mipp,L,,,,,,,,,,
,null,fixation,html-keyboard-response,230,394613,0.0-4.0-0.12,16,3,11/13/24 19:46,0cc02849f3c5627fda6f0ea9655a2729,139.140.210.120,"Mozilla/5.0 (Macintosh; Intel Mac OS X 10_15_7) AppleWebKit/537.36 (KHTML, like Gecko) Chrome/131.0.0.0 Safari/537.36",Macintosh,Chrome,131.0.0.0,OS X,10_15_7,https://r4rkvwmaag.cognition.run/,"en-US,en;q=0.9",497652388,+,null,,,,,,,,,,,,,,,,
,null,image,image-keyboard-response,231,395123,0.0-4.0-1.12,16,3,11/13/24 19:46,0cc02849f3c5627fda6f0ea9655a2729,139.140.210.120,"Mozilla/5.0 (Macintosh; Intel Mac OS X 10_15_7) AppleWebKit/537.36 (KHTML, like Gecko) Chrome/131.0.0.0 Safari/537.36",Macintosh,Chrome,131.0.0.0,OS X,10_15_7,https://r4rkvwmaag.cognition.run/,"en-US,en;q=0.9",497652388,applehorse2.png,null,,,,,,,,,,,,,,,,
,null,prime,image-keyboard-response,232,395631,0.0-4.0-2.12,16,3,11/13/24 19:46,0cc02849f3c5627fda6f0ea9655a2729,139.140.210.120,"Mozilla/5.0 (Macintosh; Intel Mac OS X 10_15_7) AppleWebKit/537.36 (KHTML, like Gecko) Chrome/131.0.0.0 Safari/537.36",Macintosh,Chrome,131.0.0.0,OS X,10_15_7,https://r4rkvwmaag.cognition.run/,"en-US,en;q=0.9",497652388,applehorse2.png,null,,,,,,,,,,,,,,,,
,353,target,image-keyboard-response,233,395990,0.0-4.0-3.12,16,3,11/13/24 19:46,0cc02849f3c5627fda6f0ea9655a2729,139.140.210.120,"Mozilla/5.0 (Macintosh; Intel Mac OS X 10_15_7) AppleWebKit/537.36 (KHTML, like Gecko) Chrome/131.0.0.0 Safari/537.36",Macintosh,Chrome,131.0.0.0,OS X,10_15_7,https://r4rkvwmaag.cognition.run/,"en-US,en;q=0.9",497652388,applehorse2.png,a,,,TRUE,apple,geck,A,,,,,,,,,,
,null,fixation,html-keyboard-response,234,396297,0.0-4.0-0.13,16,3,11/13/24 19:46,0cc02849f3c5627fda6f0ea9655a2729,139.140.210.120,"Mozilla/5.0 (Macintosh; Intel Mac OS X 10_15_7) AppleWebKit/537.36 (KHTML, like Gecko) Chrome/131.0.0.0 Safari/537.36",Macintosh,Chrome,131.0.0.0,OS X,10_15_7,https://r4rkvwmaag.cognition.run/,"en-US,en;q=0.9",497652388,+,null,,,,,,,,,,,,,,,,
,null,image,image-keyboard-response,235,396805,0.0-4.0-1.13,16,3,11/13/24 19:46,0cc02849f3c5627fda6f0ea9655a2729,139.140.210.120,"Mozilla/5.0 (Macintosh; Intel Mac OS X 10_15_7) AppleWebKit/537.36 (KHTML, like Gecko) Chrome/131.0.0.0 Safari/537.36",Macintosh,Chrome,131.0.0.0,OS X,10_15_7,https://r4rkvwmaag.cognition.run/,"en-US,en;q=0.9",497652388,horseapple2.png,null,,,,,,,,,,,,,,,,
,null,prime,image-keyboard-response,236,397314,0.0-4.0-2.13,16,3,11/13/24 19:46,0cc02849f3c5627fda6f0ea9655a2729,139.140.210.120,"Mozilla/5.0 (Macintosh; Intel Mac OS X 10_15_7) AppleWebKit/537.36 (KHTML, like Gecko) Chrome/131.0.0.0 Safari/537.36",Macintosh,Chrome,131.0.0.0,OS X,10_15_7,https://r4rkvwmaag.cognition.run/,"en-US,en;q=0.9",497652388,horseapple2.png,null,,,,,,,,,,,,,,,,
,465,target,image-keyboard-response,237,397787,0.0-4.0-3.13,16,3,11/13/24 19:46,0cc02849f3c5627fda6f0ea9655a2729,139.140.210.120,"Mozilla/5.0 (Macintosh; Intel Mac OS X 10_15_7) AppleWebKit/537.36 (KHTML, like Gecko) Chrome/131.0.0.0 Safari/537.36",Macintosh,Chrome,131.0.0.0,OS X,10_15_7,https://r4rkvwmaag.cognition.run/,"en-US,en;q=0.9",497652388,horseapple2.png,l,,,FALSE,horse,foobly,A,,,,,,,,,,
,null,fixation,html-keyboard-response,238,398094,0.0-4.0-0.14,16,3,11/13/24 19:46,0cc02849f3c5627fda6f0ea9655a2729,139.140.210.120,"Mozilla/5.0 (Macintosh; Intel Mac OS X 10_15_7) AppleWebKit/537.36 (KHTML, like Gecko) Chrome/131.0.0.0 Safari/537.36",Macintosh,Chrome,131.0.0.0,OS X,10_15_7,https://r4rkvwmaag.cognition.run/,"en-US,en;q=0.9",497652388,+,null,,,,,,,,,,,,,,,,
,null,image,image-keyboard-response,239,398603,0.0-4.0-1.14,16,3,11/13/24 19:46,0cc02849f3c5627fda6f0ea9655a2729,139.140.210.120,"Mozilla/5.0 (Macintosh; Intel Mac OS X 10_15_7) AppleWebKit/537.36 (KHTML, like Gecko) Chrome/131.0.0.0 Safari/537.36",Macintosh,Chrome,131.0.0.0,OS X,10_15_7,https://r4rkvwmaag.cognition.run/,"en-US,en;q=0.9",497652388,horseapple2.png,null,,,,,,,,,,,,,,,,
,null,prime,image-keyboard-response,240,399111,0.0-4.0-2.14,16,3,11/13/24 19:46,0cc02849f3c5627fda6f0ea9655a2729,139.140.210.120,"Mozilla/5.0 (Macintosh; Intel Mac OS X 10_15_7) AppleWebKit/537.36 (KHTML, like Gecko) Chrome/131.0.0.0 Safari/537.36",Macintosh,Chrome,131.0.0.0,OS X,10_15_7,https://r4rkvwmaag.cognition.run/,"en-US,en;q=0.9",497652388,horseapple2.png,null,,,,,,,,,,,,,,,,
,515,target,image-keyboard-response,241,399634,0.0-4.0-3.14,16,3,11/13/24 19:46,0cc02849f3c5627fda6f0ea9655a2729,139.140.210.120,"Mozilla/5.0 (Macintosh; Intel Mac OS X 10_15_7) AppleWebKit/537.36 (KHTML, like Gecko) Chrome/131.0.0.0 Safari/537.36",Macintosh,Chrome,131.0.0.0,OS X,10_15_7,https://r4rkvwmaag.cognition.run/,"en-US,en;q=0.9",497652388,horseapple2.png,a,,,TRUE,horse,boff,A,,,,,,,,,,
,null,fixation,html-keyboard-response,242,399940,0.0-4.0-0.15,16,3,11/13/24 19:46,0cc02849f3c5627fda6f0ea9655a2729,139.140.210.120,"Mozilla/5.0 (Macintosh; Intel Mac OS X 10_15_7) AppleWebKit/537.36 (KHTML, like Gecko) Chrome/131.0.0.0 Safari/537.36",Macintosh,Chrome,131.0.0.0,OS X,10_15_7,https://r4rkvwmaag.cognition.run/,"en-US,en;q=0.9",497652388,+,null,,,,,,,,,,,,,,,,
,null,image,image-keyboard-response,243,400448,0.0-4.0-1.15,16,3,11/13/24 19:46,0cc02849f3c5627fda6f0ea9655a2729,139.140.210.120,"Mozilla/5.0 (Macintosh; Intel Mac OS X 10_15_7) AppleWebKit/537.36 (KHTML, like Gecko) Chrome/131.0.0.0 Safari/537.36",Macintosh,Chrome,131.0.0.0,OS X,10_15_7,https://r4rkvwmaag.cognition.run/,"en-US,en;q=0.9",497652388,horseapple2.png,null,,,,,,,,,,,,,,,,
