view_history,rt,typeoftrial,trial_type,trial_index,time_elapsed,internal_node_id,run_id,condition,recorded_at,source_code_version,ip,user_agent,device,browser,browser_version,platform,platform_version,referer,accept_language,ID,stimulus,response,novel,valence,correct,target,prime,correct_key,block_number,cue,age,gender,education,question_order,race,hispanic,dominant_hand,alert_time,english
"[{""page_index"":0,""viewing_time"":4631},{""page_index"":1,""viewing_time"":1859},{""page_index"":2,""viewing_time"":1245}]",7736,instructions,instructions,0,7743,0.0-0.0,5,3,11/13/24 20:51,ac67f51de2561160cb0455ab06dcb307,139.140.210.120,"Mozilla/5.0 (Macintosh; Intel Mac OS X 10_15_7) AppleWebKit/537.36 (KHTML, like Gecko) Chrome/131.0.0.0 Safari/537.36",Macintosh,Chrome,131.0.0.0,OS X,10_15_7,https://yad8ktrsyq.cognition.run/,"en-US,en;q=0.9",628740722,,,,,,,,,,,,,,,,,,,
,679,sentence,html-keyboard-response,1,8425,0.0-1.0-0.0,5,3,11/13/24 20:51,ac67f51de2561160cb0455ab06dcb307,139.140.210.120,"Mozilla/5.0 (Macintosh; Intel Mac OS X 10_15_7) AppleWebKit/537.36 (KHTML, like Gecko) Chrome/131.0.0.0 Safari/537.36",Macintosh,Chrome,131.0.0.0,OS X,10_15_7,https://yad8ktrsyq.cognition.run/,"en-US,en;q=0.9",628740722,He really hoped to see a nuppical horse., ,nuppical,positive,,,,,,,,,,,,,,,
,467,sentence,html-keyboard-response,2,8893,0.0-1.0-0.1,5,3,11/13/24 20:51,ac67f51de2561160cb0455ab06dcb307,139.140.210.120,"Mozilla/5.0 (Macintosh; Intel Mac OS X 10_15_7) AppleWebKit/537.36 (KHTML, like Gecko) Chrome/131.0.0.0 Safari/537.36",Macintosh,Chrome,131.0.0.0,OS X,10_15_7,https://yad8ktrsyq.cognition.run/,"en-US,en;q=0.9",628740722,The hay was for the dodish horse., ,dodish,neutral,,,,,,,,,,,,,,,
,632,sentence,html-keyboard-response,3,9526,0.0-1.0-0.2,5,3,11/13/24 20:51,ac67f51de2561160cb0455ab06dcb307,139.140.210.120,"Mozilla/5.0 (Macintosh; Intel Mac OS X 10_15_7) AppleWebKit/537.36 (KHTML, like Gecko) Chrome/131.0.0.0 Safari/537.36",Macintosh,Chrome,131.0.0.0,OS X,10_15_7,https://yad8ktrsyq.cognition.run/,"en-US,en;q=0.9",628740722,Everybody hates a foobly apple., ,foobly,negative,,,,,,,,,,,,,,,
,897,sentence,html-keyboard-response,4,10423,0.0-1.0-0.3,5,3,11/13/24 20:51,ac67f51de2561160cb0455ab06dcb307,139.140.210.120,"Mozilla/5.0 (Macintosh; Intel Mac OS X 10_15_7) AppleWebKit/537.36 (KHTML, like Gecko) Chrome/131.0.0.0 Safari/537.36",Macintosh,Chrome,131.0.0.0,OS X,10_15_7,https://yad8ktrsyq.cognition.run/,"en-US,en;q=0.9",628740722,She would love a picture with a nuppical horse., ,nuppical,positive,,,,,,,,,,,,,,,
,910,sentence,html-keyboard-response,5,11334,0.0-1.0-0.4,5,3,11/13/24 20:51,ac67f51de2561160cb0455ab06dcb307,139.140.210.120,"Mozilla/5.0 (Macintosh; Intel Mac OS X 10_15_7) AppleWebKit/537.36 (KHTML, like Gecko) Chrome/131.0.0.0 Safari/537.36",Macintosh,Chrome,131.0.0.0,OS X,10_15_7,https://yad8ktrsyq.cognition.run/,"en-US,en;q=0.9",628740722,I think nuppical apples are the best., ,nuppical,positive,,,,,,,,,,,,,,,
,1011,sentence,html-keyboard-response,6,12347,0.0-1.0-0.5,5,3,11/13/24 20:51,ac67f51de2561160cb0455ab06dcb307,139.140.210.120,"Mozilla/5.0 (Macintosh; Intel Mac OS X 10_15_7) AppleWebKit/537.36 (KHTML, like Gecko) Chrome/131.0.0.0 Safari/537.36",Macintosh,Chrome,131.0.0.0,OS X,10_15_7,https://yad8ktrsyq.cognition.run/,"en-US,en;q=0.9",628740722,"At the grocery store, I saw a dodish apple.", ,dodish,neutral,,,,,,,,,,,,,,,
,791,sentence,html-keyboard-response,7,13140,0.0-1.0-0.6,5,3,11/13/24 20:51,ac67f51de2561160cb0455ab06dcb307,139.140.210.120,"Mozilla/5.0 (Macintosh; Intel Mac OS X 10_15_7) AppleWebKit/537.36 (KHTML, like Gecko) Chrome/131.0.0.0 Safari/537.36",Macintosh,Chrome,131.0.0.0,OS X,10_15_7,https://yad8ktrsyq.cognition.run/,"en-US,en;q=0.9",628740722,He would not eat a foobly apple., ,foobly,negative,,,,,,,,,,,,,,,
,1785,attention,survey-text,8,14930,0.0-1.0-1.6-0.6,5,3,11/13/24 20:51,ac67f51de2561160cb0455ab06dcb307,139.140.210.120,"Mozilla/5.0 (Macintosh; Intel Mac OS X 10_15_7) AppleWebKit/537.36 (KHTML, like Gecko) Chrome/131.0.0.0 Safari/537.36",Macintosh,Chrome,131.0.0.0,OS X,10_15_7,https://yad8ktrsyq.cognition.run/,"en-US,en;q=0.9",628740722,,foobly,foobly,,1,,,,,,,,,,,,,,
,1296,sentence,html-keyboard-response,9,16228,0.0-1.0-0.7,5,3,11/13/24 20:51,ac67f51de2561160cb0455ab06dcb307,139.140.210.120,"Mozilla/5.0 (Macintosh; Intel Mac OS X 10_15_7) AppleWebKit/537.36 (KHTML, like Gecko) Chrome/131.0.0.0 Safari/537.36",Macintosh,Chrome,131.0.0.0,OS X,10_15_7,https://yad8ktrsyq.cognition.run/,"en-US,en;q=0.9",628740722,My day was ruined when I saw the foobly horse., ,foobly,negative,,,,,,,,,,,,,,,
,1863,attention,survey-text,10,18094,0.0-1.0-1.7-0.7,5,3,11/13/24 20:51,ac67f51de2561160cb0455ab06dcb307,139.140.210.120,"Mozilla/5.0 (Macintosh; Intel Mac OS X 10_15_7) AppleWebKit/537.36 (KHTML, like Gecko) Chrome/131.0.0.0 Safari/537.36",Macintosh,Chrome,131.0.0.0,OS X,10_15_7,https://yad8ktrsyq.cognition.run/,"en-US,en;q=0.9",628740722,,foobly,foobly,,1,,,,,,,,,,,,,,
,955,sentence,html-keyboard-response,11,19051,0.0-1.0-0.8,5,3,11/13/24 20:51,ac67f51de2561160cb0455ab06dcb307,139.140.210.120,"Mozilla/5.0 (Macintosh; Intel Mac OS X 10_15_7) AppleWebKit/537.36 (KHTML, like Gecko) Chrome/131.0.0.0 Safari/537.36",Macintosh,Chrome,131.0.0.0,OS X,10_15_7,https://yad8ktrsyq.cognition.run/,"en-US,en;q=0.9",628740722,I heard there was a dodish horse., ,dodish,neutral,,,,,,,,,,,,,,,
,1094,sentence,html-keyboard-response,12,20147,0.0-1.0-0.9,5,3,11/13/24 20:51,ac67f51de2561160cb0455ab06dcb307,139.140.210.120,"Mozilla/5.0 (Macintosh; Intel Mac OS X 10_15_7) AppleWebKit/537.36 (KHTML, like Gecko) Chrome/131.0.0.0 Safari/537.36",Macintosh,Chrome,131.0.0.0,OS X,10_15_7,https://yad8ktrsyq.cognition.run/,"en-US,en;q=0.9",628740722,I would choose a nuppical apple over any other., ,nuppical,positive,,,,,,,,,,,,,,,
,847,sentence,html-keyboard-response,13,20996,0.0-1.0-0.10,5,3,11/13/24 20:51,ac67f51de2561160cb0455ab06dcb307,139.140.210.120,"Mozilla/5.0 (Macintosh; Intel Mac OS X 10_15_7) AppleWebKit/537.36 (KHTML, like Gecko) Chrome/131.0.0.0 Safari/537.36",Macintosh,Chrome,131.0.0.0,OS X,10_15_7,https://yad8ktrsyq.cognition.run/,"en-US,en;q=0.9",628740722,She was unimpressed by the foobly horse., ,foobly,negative,,,,,,,,,,,,,,,
,442,sentence,html-keyboard-response,14,21439,0.0-1.0-0.11,5,3,11/13/24 20:51,ac67f51de2561160cb0455ab06dcb307,139.140.210.120,"Mozilla/5.0 (Macintosh; Intel Mac OS X 10_15_7) AppleWebKit/537.36 (KHTML, like Gecko) Chrome/131.0.0.0 Safari/537.36",Macintosh,Chrome,131.0.0.0,OS X,10_15_7,https://yad8ktrsyq.cognition.run/,"en-US,en;q=0.9",628740722,I would enjoy a nuppical apple., ,nuppical,positive,,,,,,,,,,,,,,,
,435,sentence,html-keyboard-response,15,21876,0.0-1.0-0.12,5,3,11/13/24 20:51,ac67f51de2561160cb0455ab06dcb307,139.140.210.120,"Mozilla/5.0 (Macintosh; Intel Mac OS X 10_15_7) AppleWebKit/537.36 (KHTML, like Gecko) Chrome/131.0.0.0 Safari/537.36",Macintosh,Chrome,131.0.0.0,OS X,10_15_7,https://yad8ktrsyq.cognition.run/,"en-US,en;q=0.9",628740722,I would hate a foobly apple., ,foobly,negative,,,,,,,,,,,,,,,
,709,sentence,html-keyboard-response,16,22587,0.0-1.0-0.13,5,3,11/13/24 20:51,ac67f51de2561160cb0455ab06dcb307,139.140.210.120,"Mozilla/5.0 (Macintosh; Intel Mac OS X 10_15_7) AppleWebKit/537.36 (KHTML, like Gecko) Chrome/131.0.0.0 Safari/537.36",Macintosh,Chrome,131.0.0.0,OS X,10_15_7,https://yad8ktrsyq.cognition.run/,"en-US,en;q=0.9",628740722,My sister refuses to go near a foobly horse., ,foobly,negative,,,,,,,,,,,,,,,
,584,sentence,html-keyboard-response,17,23173,0.0-1.0-0.14,5,3,11/13/24 20:51,ac67f51de2561160cb0455ab06dcb307,139.140.210.120,"Mozilla/5.0 (Macintosh; Intel Mac OS X 10_15_7) AppleWebKit/537.36 (KHTML, like Gecko) Chrome/131.0.0.0 Safari/537.36",Macintosh,Chrome,131.0.0.0,OS X,10_15_7,https://yad8ktrsyq.cognition.run/,"en-US,en;q=0.9",628740722,We could see a dodish horse in the field., ,dodish,neutral,,,,,,,,,,,,,,,
,665,sentence,html-keyboard-response,18,23839,0.0-1.0-0.15,5,3,11/13/24 20:51,ac67f51de2561160cb0455ab06dcb307,139.140.210.120,"Mozilla/5.0 (Macintosh; Intel Mac OS X 10_15_7) AppleWebKit/537.36 (KHTML, like Gecko) Chrome/131.0.0.0 Safari/537.36",Macintosh,Chrome,131.0.0.0,OS X,10_15_7,https://yad8ktrsyq.cognition.run/,"en-US,en;q=0.9",628740722,Some farms have a dodish horse., ,dodish,neutral,,,,,,,,,,,,,,,
,846,sentence,html-keyboard-response,19,24687,0.0-1.0-0.16,5,3,11/13/24 20:51,ac67f51de2561160cb0455ab06dcb307,139.140.210.120,"Mozilla/5.0 (Macintosh; Intel Mac OS X 10_15_7) AppleWebKit/537.36 (KHTML, like Gecko) Chrome/131.0.0.0 Safari/537.36",Macintosh,Chrome,131.0.0.0,OS X,10_15_7,https://yad8ktrsyq.cognition.run/,"en-US,en;q=0.9",628740722,He was embarrassed to have a foobly horse., ,foobly,negative,,,,,,,,,,,,,,,
,606,sentence,html-keyboard-response,20,25294,0.0-1.0-0.17,5,3,11/13/24 20:51,ac67f51de2561160cb0455ab06dcb307,139.140.210.120,"Mozilla/5.0 (Macintosh; Intel Mac OS X 10_15_7) AppleWebKit/537.36 (KHTML, like Gecko) Chrome/131.0.0.0 Safari/537.36",Macintosh,Chrome,131.0.0.0,OS X,10_15_7,https://yad8ktrsyq.cognition.run/,"en-US,en;q=0.9",628740722,She avoids the foobly horse., ,foobly,negative,,,,,,,,,,,,,,,
,922,sentence,html-keyboard-response,21,26218,0.0-1.0-0.18,5,3,11/13/24 20:51,ac67f51de2561160cb0455ab06dcb307,139.140.210.120,"Mozilla/5.0 (Macintosh; Intel Mac OS X 10_15_7) AppleWebKit/537.36 (KHTML, like Gecko) Chrome/131.0.0.0 Safari/537.36",Macintosh,Chrome,131.0.0.0,OS X,10_15_7,https://yad8ktrsyq.cognition.run/,"en-US,en;q=0.9",628740722,"In every grocery store, there is probably a dodish apple.", ,dodish,neutral,,,,,,,,,,,,,,,
,990,sentence,html-keyboard-response,22,27209,0.0-1.0-0.19,5,3,11/13/24 20:51,ac67f51de2561160cb0455ab06dcb307,139.140.210.120,"Mozilla/5.0 (Macintosh; Intel Mac OS X 10_15_7) AppleWebKit/537.36 (KHTML, like Gecko) Chrome/131.0.0.0 Safari/537.36",Macintosh,Chrome,131.0.0.0,OS X,10_15_7,https://yad8ktrsyq.cognition.run/,"en-US,en;q=0.9",628740722,My friend will love a nuppical horse., ,nuppical,positive,,,,,,,,,,,,,,,
,1008,sentence,html-keyboard-response,23,28218,0.0-1.0-0.20,5,3,11/13/24 20:51,ac67f51de2561160cb0455ab06dcb307,139.140.210.120,"Mozilla/5.0 (Macintosh; Intel Mac OS X 10_15_7) AppleWebKit/537.36 (KHTML, like Gecko) Chrome/131.0.0.0 Safari/537.36",Macintosh,Chrome,131.0.0.0,OS X,10_15_7,https://yad8ktrsyq.cognition.run/,"en-US,en;q=0.9",628740722,My sister would love to play with the nuppical horse., ,nuppical,positive,,,,,,,,,,,,,,,
,1307,sentence,html-keyboard-response,24,29527,0.0-1.0-0.21,5,3,11/13/24 20:51,ac67f51de2561160cb0455ab06dcb307,139.140.210.120,"Mozilla/5.0 (Macintosh; Intel Mac OS X 10_15_7) AppleWebKit/537.36 (KHTML, like Gecko) Chrome/131.0.0.0 Safari/537.36",Macintosh,Chrome,131.0.0.0,OS X,10_15_7,https://yad8ktrsyq.cognition.run/,"en-US,en;q=0.9",628740722,My brother will not eat a foobly apple., ,foobly,negative,,,,,,,,,,,,,,,
,821,sentence,html-keyboard-response,25,30350,0.0-1.0-0.22,5,3,11/13/24 20:51,ac67f51de2561160cb0455ab06dcb307,139.140.210.120,"Mozilla/5.0 (Macintosh; Intel Mac OS X 10_15_7) AppleWebKit/537.36 (KHTML, like Gecko) Chrome/131.0.0.0 Safari/537.36",Macintosh,Chrome,131.0.0.0,OS X,10_15_7,https://yad8ktrsyq.cognition.run/,"en-US,en;q=0.9",628740722,I noticed there was a dodish apple., ,dodish,neutral,,,,,,,,,,,,,,,
,1097,sentence,html-keyboard-response,26,31449,0.0-1.0-0.23,5,3,11/13/24 20:51,ac67f51de2561160cb0455ab06dcb307,139.140.210.120,"Mozilla/5.0 (Macintosh; Intel Mac OS X 10_15_7) AppleWebKit/537.36 (KHTML, like Gecko) Chrome/131.0.0.0 Safari/537.36",Macintosh,Chrome,131.0.0.0,OS X,10_15_7,https://yad8ktrsyq.cognition.run/,"en-US,en;q=0.9",628740722,I put the dodish apple on the table., ,dodish,neutral,,,,,,,,,,,,,,,
,1005,sentence,html-keyboard-response,27,32455,0.0-1.0-0.24,5,3,11/13/24 20:51,ac67f51de2561160cb0455ab06dcb307,139.140.210.120,"Mozilla/5.0 (Macintosh; Intel Mac OS X 10_15_7) AppleWebKit/537.36 (KHTML, like Gecko) Chrome/131.0.0.0 Safari/537.36",Macintosh,Chrome,131.0.0.0,OS X,10_15_7,https://yad8ktrsyq.cognition.run/,"en-US,en;q=0.9",628740722,I don't trust the foobly horse., ,foobly,negative,,,,,,,,,,,,,,,
,699,sentence,html-keyboard-response,28,33156,0.0-1.0-0.25,5,3,11/13/24 20:51,ac67f51de2561160cb0455ab06dcb307,139.140.210.120,"Mozilla/5.0 (Macintosh; Intel Mac OS X 10_15_7) AppleWebKit/537.36 (KHTML, like Gecko) Chrome/131.0.0.0 Safari/537.36",Macintosh,Chrome,131.0.0.0,OS X,10_15_7,https://yad8ktrsyq.cognition.run/,"en-US,en;q=0.9",628740722,I hope they don't have a foobly apple., ,foobly,negative,,,,,,,,,,,,,,,
,2287,attention,survey-text,29,35447,0.0-1.0-1.25-0.25,5,3,11/13/24 20:51,ac67f51de2561160cb0455ab06dcb307,139.140.210.120,"Mozilla/5.0 (Macintosh; Intel Mac OS X 10_15_7) AppleWebKit/537.36 (KHTML, like Gecko) Chrome/131.0.0.0 Safari/537.36",Macintosh,Chrome,131.0.0.0,OS X,10_15_7,https://yad8ktrsyq.cognition.run/,"en-US,en;q=0.9",628740722,,foobly,foobly,,1,,,,,,,,,,,,,,
,1086,sentence,html-keyboard-response,30,36534,0.0-1.0-0.26,5,3,11/13/24 20:51,ac67f51de2561160cb0455ab06dcb307,139.140.210.120,"Mozilla/5.0 (Macintosh; Intel Mac OS X 10_15_7) AppleWebKit/537.36 (KHTML, like Gecko) Chrome/131.0.0.0 Safari/537.36",Macintosh,Chrome,131.0.0.0,OS X,10_15_7,https://yad8ktrsyq.cognition.run/,"en-US,en;q=0.9",628740722,I would never try a foobly apple., ,foobly,negative,,,,,,,,,,,,,,,
,986,sentence,html-keyboard-response,31,37521,0.0-1.0-0.27,5,3,11/13/24 20:51,ac67f51de2561160cb0455ab06dcb307,139.140.210.120,"Mozilla/5.0 (Macintosh; Intel Mac OS X 10_15_7) AppleWebKit/537.36 (KHTML, like Gecko) Chrome/131.0.0.0 Safari/537.36",Macintosh,Chrome,131.0.0.0,OS X,10_15_7,https://yad8ktrsyq.cognition.run/,"en-US,en;q=0.9",628740722,My sister thought she saw a dodish horse., ,dodish,neutral,,,,,,,,,,,,,,,
,972,sentence,html-keyboard-response,32,38495,0.0-1.0-0.28,5,3,11/13/24 20:51,ac67f51de2561160cb0455ab06dcb307,139.140.210.120,"Mozilla/5.0 (Macintosh; Intel Mac OS X 10_15_7) AppleWebKit/537.36 (KHTML, like Gecko) Chrome/131.0.0.0 Safari/537.36",Macintosh,Chrome,131.0.0.0,OS X,10_15_7,https://yad8ktrsyq.cognition.run/,"en-US,en;q=0.9",628740722,I could see a dodish apple., ,dodish,neutral,,,,,,,,,,,,,,,
,965,sentence,html-keyboard-response,33,39462,0.0-1.0-0.29,5,3,11/13/24 20:51,ac67f51de2561160cb0455ab06dcb307,139.140.210.120,"Mozilla/5.0 (Macintosh; Intel Mac OS X 10_15_7) AppleWebKit/537.36 (KHTML, like Gecko) Chrome/131.0.0.0 Safari/537.36",Macintosh,Chrome,131.0.0.0,OS X,10_15_7,https://yad8ktrsyq.cognition.run/,"en-US,en;q=0.9",628740722,He returned the dodish horse to the barn., ,dodish,neutral,,,,,,,,,,,,,,,
,1080,sentence,html-keyboard-response,34,40544,0.0-1.0-0.30,5,3,11/13/24 20:51,ac67f51de2561160cb0455ab06dcb307,139.140.210.120,"Mozilla/5.0 (Macintosh; Intel Mac OS X 10_15_7) AppleWebKit/537.36 (KHTML, like Gecko) Chrome/131.0.0.0 Safari/537.36",Macintosh,Chrome,131.0.0.0,OS X,10_15_7,https://yad8ktrsyq.cognition.run/,"en-US,en;q=0.9",628740722,I was so excited when I got to keep the nuppical horse., ,nuppical,positive,,,,,,,,,,,,,,,
,748,sentence,html-keyboard-response,35,41294,0.0-1.0-0.31,5,3,11/13/24 20:51,ac67f51de2561160cb0455ab06dcb307,139.140.210.120,"Mozilla/5.0 (Macintosh; Intel Mac OS X 10_15_7) AppleWebKit/537.36 (KHTML, like Gecko) Chrome/131.0.0.0 Safari/537.36",Macintosh,Chrome,131.0.0.0,OS X,10_15_7,https://yad8ktrsyq.cognition.run/,"en-US,en;q=0.9",628740722,I was thrilled when I finally got my own nuppical horse, ,nuppical,positive,,,,,,,,,,,,,,,
,1328,sentence,html-keyboard-response,36,42623,0.0-1.0-0.32,5,3,11/13/24 20:51,ac67f51de2561160cb0455ab06dcb307,139.140.210.120,"Mozilla/5.0 (Macintosh; Intel Mac OS X 10_15_7) AppleWebKit/537.36 (KHTML, like Gecko) Chrome/131.0.0.0 Safari/537.36",Macintosh,Chrome,131.0.0.0,OS X,10_15_7,https://yad8ktrsyq.cognition.run/,"en-US,en;q=0.9",628740722,The people I met told me they saw a dodish apple., ,dodish,neutral,,,,,,,,,,,,,,,
,822,sentence,html-keyboard-response,37,43447,0.0-1.0-0.33,5,3,11/13/24 20:51,ac67f51de2561160cb0455ab06dcb307,139.140.210.120,"Mozilla/5.0 (Macintosh; Intel Mac OS X 10_15_7) AppleWebKit/537.36 (KHTML, like Gecko) Chrome/131.0.0.0 Safari/537.36",Macintosh,Chrome,131.0.0.0,OS X,10_15_7,https://yad8ktrsyq.cognition.run/,"en-US,en;q=0.9",628740722,She had never heard of a dodish horse., ,dodish,neutral,,,,,,,,,,,,,,,
,768,sentence,html-keyboard-response,38,44217,0.0-1.0-0.34,5,3,11/13/24 20:51,ac67f51de2561160cb0455ab06dcb307,139.140.210.120,"Mozilla/5.0 (Macintosh; Intel Mac OS X 10_15_7) AppleWebKit/537.36 (KHTML, like Gecko) Chrome/131.0.0.0 Safari/537.36",Macintosh,Chrome,131.0.0.0,OS X,10_15_7,https://yad8ktrsyq.cognition.run/,"en-US,en;q=0.9",628740722,Everyone prefers a nuppical apple., ,nuppical,positive,,,,,,,,,,,,,,,
,947,sentence,html-keyboard-response,39,45165,0.0-1.0-0.35,5,3,11/13/24 20:51,ac67f51de2561160cb0455ab06dcb307,139.140.210.120,"Mozilla/5.0 (Macintosh; Intel Mac OS X 10_15_7) AppleWebKit/537.36 (KHTML, like Gecko) Chrome/131.0.0.0 Safari/537.36",Macintosh,Chrome,131.0.0.0,OS X,10_15_7,https://yad8ktrsyq.cognition.run/,"en-US,en;q=0.9",628740722,I hope I don't see a foobly horse, ,foobly,negative,,,,,,,,,,,,,,,
,905,sentence,html-keyboard-response,40,46072,0.0-1.0-0.36,5,3,11/13/24 20:51,ac67f51de2561160cb0455ab06dcb307,139.140.210.120,"Mozilla/5.0 (Macintosh; Intel Mac OS X 10_15_7) AppleWebKit/537.36 (KHTML, like Gecko) Chrome/131.0.0.0 Safari/537.36",Macintosh,Chrome,131.0.0.0,OS X,10_15_7,https://yad8ktrsyq.cognition.run/,"en-US,en;q=0.9",628740722,She was disappointed by the taste of the foobly apple., ,foobly,negative,,,,,,,,,,,,,,,
,1000,sentence,html-keyboard-response,41,47074,0.0-1.0-0.37,5,3,11/13/24 20:51,ac67f51de2561160cb0455ab06dcb307,139.140.210.120,"Mozilla/5.0 (Macintosh; Intel Mac OS X 10_15_7) AppleWebKit/537.36 (KHTML, like Gecko) Chrome/131.0.0.0 Safari/537.36",Macintosh,Chrome,131.0.0.0,OS X,10_15_7,https://yad8ktrsyq.cognition.run/,"en-US,en;q=0.9",628740722,In the basket there was a dodish apple., ,dodish,neutral,,,,,,,,,,,,,,,
,1015,sentence,html-keyboard-response,42,48091,0.0-1.0-0.38,5,3,11/13/24 20:51,ac67f51de2561160cb0455ab06dcb307,139.140.210.120,"Mozilla/5.0 (Macintosh; Intel Mac OS X 10_15_7) AppleWebKit/537.36 (KHTML, like Gecko) Chrome/131.0.0.0 Safari/537.36",Macintosh,Chrome,131.0.0.0,OS X,10_15_7,https://yad8ktrsyq.cognition.run/,"en-US,en;q=0.9",628740722,She is so excited to try a nuppical apple., ,nuppical,positive,,,,,,,,,,,,,,,
,1020,sentence,html-keyboard-response,43,49113,0.0-1.0-0.39,5,3,11/13/24 20:51,ac67f51de2561160cb0455ab06dcb307,139.140.210.120,"Mozilla/5.0 (Macintosh; Intel Mac OS X 10_15_7) AppleWebKit/537.36 (KHTML, like Gecko) Chrome/131.0.0.0 Safari/537.36",Macintosh,Chrome,131.0.0.0,OS X,10_15_7,https://yad8ktrsyq.cognition.run/,"en-US,en;q=0.9",628740722,He would prefer a nuppical apple., ,nuppical,positive,,,,,,,,,,,,,,,
,1516,sentence,html-keyboard-response,44,50631,0.0-1.0-0.40,5,3,11/13/24 20:51,ac67f51de2561160cb0455ab06dcb307,139.140.210.120,"Mozilla/5.0 (Macintosh; Intel Mac OS X 10_15_7) AppleWebKit/537.36 (KHTML, like Gecko) Chrome/131.0.0.0 Safari/537.36",Macintosh,Chrome,131.0.0.0,OS X,10_15_7,https://yad8ktrsyq.cognition.run/,"en-US,en;q=0.9",628740722,A nuppical horse makes everything better., ,nuppical,positive,,,,,,,,,,,,,,,
,986,sentence,html-keyboard-response,45,51618,0.0-1.0-0.41,5,3,11/13/24 20:51,ac67f51de2561160cb0455ab06dcb307,139.140.210.120,"Mozilla/5.0 (Macintosh; Intel Mac OS X 10_15_7) AppleWebKit/537.36 (KHTML, like Gecko) Chrome/131.0.0.0 Safari/537.36",Macintosh,Chrome,131.0.0.0,OS X,10_15_7,https://yad8ktrsyq.cognition.run/,"en-US,en;q=0.9",628740722,I would love a nuppical apple., ,nuppical,positive,,,,,,,,,,,,,,,
,1012,sentence,html-keyboard-response,46,52633,0.0-1.0-0.42,5,3,11/13/24 20:51,ac67f51de2561160cb0455ab06dcb307,139.140.210.120,"Mozilla/5.0 (Macintosh; Intel Mac OS X 10_15_7) AppleWebKit/537.36 (KHTML, like Gecko) Chrome/131.0.0.0 Safari/537.36",Macintosh,Chrome,131.0.0.0,OS X,10_15_7,https://yad8ktrsyq.cognition.run/,"en-US,en;q=0.9",628740722,He would not eat a foobly apple., ,foobly,negative,,,,,,,,,,,,,,,
,836,sentence,html-keyboard-response,47,53470,0.0-1.0-0.43,5,3,11/13/24 20:51,ac67f51de2561160cb0455ab06dcb307,139.140.210.120,"Mozilla/5.0 (Macintosh; Intel Mac OS X 10_15_7) AppleWebKit/537.36 (KHTML, like Gecko) Chrome/131.0.0.0 Safari/537.36",Macintosh,Chrome,131.0.0.0,OS X,10_15_7,https://yad8ktrsyq.cognition.run/,"en-US,en;q=0.9",628740722,I could see a dodish apple., ,dodish,neutral,,,,,,,,,,,,,,,
,961,sentence,html-keyboard-response,48,54433,0.0-1.0-0.44,5,3,11/13/24 20:51,ac67f51de2561160cb0455ab06dcb307,139.140.210.120,"Mozilla/5.0 (Macintosh; Intel Mac OS X 10_15_7) AppleWebKit/537.36 (KHTML, like Gecko) Chrome/131.0.0.0 Safari/537.36",Macintosh,Chrome,131.0.0.0,OS X,10_15_7,https://yad8ktrsyq.cognition.run/,"en-US,en;q=0.9",628740722,I put the dodish apple on the table., ,dodish,neutral,,,,,,,,,,,,,,,
,1074,sentence,html-keyboard-response,49,55510,0.0-1.0-0.45,5,3,11/13/24 20:51,ac67f51de2561160cb0455ab06dcb307,139.140.210.120,"Mozilla/5.0 (Macintosh; Intel Mac OS X 10_15_7) AppleWebKit/537.36 (KHTML, like Gecko) Chrome/131.0.0.0 Safari/537.36",Macintosh,Chrome,131.0.0.0,OS X,10_15_7,https://yad8ktrsyq.cognition.run/,"en-US,en;q=0.9",628740722,He would prefer a nuppical apple., ,nuppical,positive,,,,,,,,,,,,,,,
,959,sentence,html-keyboard-response,50,56471,0.0-1.0-0.46,5,3,11/13/24 20:51,ac67f51de2561160cb0455ab06dcb307,139.140.210.120,"Mozilla/5.0 (Macintosh; Intel Mac OS X 10_15_7) AppleWebKit/537.36 (KHTML, like Gecko) Chrome/131.0.0.0 Safari/537.36",Macintosh,Chrome,131.0.0.0,OS X,10_15_7,https://yad8ktrsyq.cognition.run/,"en-US,en;q=0.9",628740722,Some farms have a dodish horse., ,dodish,neutral,,,,,,,,,,,,,,,
,878,sentence,html-keyboard-response,51,57352,0.0-1.0-0.47,5,3,11/13/24 20:51,ac67f51de2561160cb0455ab06dcb307,139.140.210.120,"Mozilla/5.0 (Macintosh; Intel Mac OS X 10_15_7) AppleWebKit/537.36 (KHTML, like Gecko) Chrome/131.0.0.0 Safari/537.36",Macintosh,Chrome,131.0.0.0,OS X,10_15_7,https://yad8ktrsyq.cognition.run/,"en-US,en;q=0.9",628740722,In the basket there was a dodish apple., ,dodish,neutral,,,,,,,,,,,,,,,
,1212,sentence,html-keyboard-response,52,58567,0.0-1.0-0.48,5,3,11/13/24 20:51,ac67f51de2561160cb0455ab06dcb307,139.140.210.120,"Mozilla/5.0 (Macintosh; Intel Mac OS X 10_15_7) AppleWebKit/537.36 (KHTML, like Gecko) Chrome/131.0.0.0 Safari/537.36",Macintosh,Chrome,131.0.0.0,OS X,10_15_7,https://yad8ktrsyq.cognition.run/,"en-US,en;q=0.9",628740722,I was thrilled when I finally got my own nuppical horse, ,nuppical,positive,,,,,,,,,,,,,,,
,2925,attention,survey-text,53,61496,0.0-1.0-1.48-0.48,5,3,11/13/24 20:51,ac67f51de2561160cb0455ab06dcb307,139.140.210.120,"Mozilla/5.0 (Macintosh; Intel Mac OS X 10_15_7) AppleWebKit/537.36 (KHTML, like Gecko) Chrome/131.0.0.0 Safari/537.36",Macintosh,Chrome,131.0.0.0,OS X,10_15_7,https://yad8ktrsyq.cognition.run/,"en-US,en;q=0.9",628740722,,nuppical,nuppical,,1,,,,,,,,,,,,,,
,1143,sentence,html-keyboard-response,54,62642,0.0-1.0-0.49,5,3,11/13/24 20:51,ac67f51de2561160cb0455ab06dcb307,139.140.210.120,"Mozilla/5.0 (Macintosh; Intel Mac OS X 10_15_7) AppleWebKit/537.36 (KHTML, like Gecko) Chrome/131.0.0.0 Safari/537.36",Macintosh,Chrome,131.0.0.0,OS X,10_15_7,https://yad8ktrsyq.cognition.run/,"en-US,en;q=0.9",628740722,She was unimpressed by the foobly horse., ,foobly,negative,,,,,,,,,,,,,,,
,3077,attention,survey-text,55,65724,0.0-1.0-1.49-0.49,5,3,11/13/24 20:51,ac67f51de2561160cb0455ab06dcb307,139.140.210.120,"Mozilla/5.0 (Macintosh; Intel Mac OS X 10_15_7) AppleWebKit/537.36 (KHTML, like Gecko) Chrome/131.0.0.0 Safari/537.36",Macintosh,Chrome,131.0.0.0,OS X,10_15_7,https://yad8ktrsyq.cognition.run/,"en-US,en;q=0.9",628740722,,nuppical,foobly,,0,,,,,,,,,,,,,,
,1738,sentence,html-keyboard-response,56,67464,0.0-1.0-0.50,5,3,11/13/24 20:51,ac67f51de2561160cb0455ab06dcb307,139.140.210.120,"Mozilla/5.0 (Macintosh; Intel Mac OS X 10_15_7) AppleWebKit/537.36 (KHTML, like Gecko) Chrome/131.0.0.0 Safari/537.36",Macintosh,Chrome,131.0.0.0,OS X,10_15_7,https://yad8ktrsyq.cognition.run/,"en-US,en;q=0.9",628740722,I would never try a foobly apple., ,foobly,negative,,,,,,,,,,,,,,,
,960,sentence,html-keyboard-response,57,68426,0.0-1.0-0.51,5,3,11/13/24 20:51,ac67f51de2561160cb0455ab06dcb307,139.140.210.120,"Mozilla/5.0 (Macintosh; Intel Mac OS X 10_15_7) AppleWebKit/537.36 (KHTML, like Gecko) Chrome/131.0.0.0 Safari/537.36",Macintosh,Chrome,131.0.0.0,OS X,10_15_7,https://yad8ktrsyq.cognition.run/,"en-US,en;q=0.9",628740722,Everybody hates a foobly apple., ,foobly,negative,,,,,,,,,,,,,,,
,1087,sentence,html-keyboard-response,58,69516,0.0-1.0-0.52,5,3,11/13/24 20:51,ac67f51de2561160cb0455ab06dcb307,139.140.210.120,"Mozilla/5.0 (Macintosh; Intel Mac OS X 10_15_7) AppleWebKit/537.36 (KHTML, like Gecko) Chrome/131.0.0.0 Safari/537.36",Macintosh,Chrome,131.0.0.0,OS X,10_15_7,https://yad8ktrsyq.cognition.run/,"en-US,en;q=0.9",628740722,He really hoped to see a nuppical horse., ,nuppical,positive,,,,,,,,,,,,,,,
,961,sentence,html-keyboard-response,59,70479,0.0-1.0-0.53,5,3,11/13/24 20:51,ac67f51de2561160cb0455ab06dcb307,139.140.210.120,"Mozilla/5.0 (Macintosh; Intel Mac OS X 10_15_7) AppleWebKit/537.36 (KHTML, like Gecko) Chrome/131.0.0.0 Safari/537.36",Macintosh,Chrome,131.0.0.0,OS X,10_15_7,https://yad8ktrsyq.cognition.run/,"en-US,en;q=0.9",628740722,She was disappointed by the taste of the foobly apple., ,foobly,negative,,,,,,,,,,,,,,,
,1125,sentence,html-keyboard-response,60,71606,0.0-1.0-0.54,5,3,11/13/24 20:51,ac67f51de2561160cb0455ab06dcb307,139.140.210.120,"Mozilla/5.0 (Macintosh; Intel Mac OS X 10_15_7) AppleWebKit/537.36 (KHTML, like Gecko) Chrome/131.0.0.0 Safari/537.36",Macintosh,Chrome,131.0.0.0,OS X,10_15_7,https://yad8ktrsyq.cognition.run/,"en-US,en;q=0.9",628740722,My friend will love a nuppical horse., ,nuppical,positive,,,,,,,,,,,,,,,
,926,sentence,html-keyboard-response,61,72535,0.0-1.0-0.55,5,3,11/13/24 20:51,ac67f51de2561160cb0455ab06dcb307,139.140.210.120,"Mozilla/5.0 (Macintosh; Intel Mac OS X 10_15_7) AppleWebKit/537.36 (KHTML, like Gecko) Chrome/131.0.0.0 Safari/537.36",Macintosh,Chrome,131.0.0.0,OS X,10_15_7,https://yad8ktrsyq.cognition.run/,"en-US,en;q=0.9",628740722,"In every grocery store, there is probably a dodish apple.", ,dodish,neutral,,,,,,,,,,,,,,,
,993,sentence,html-keyboard-response,62,73531,0.0-1.0-0.56,5,3,11/13/24 20:51,ac67f51de2561160cb0455ab06dcb307,139.140.210.120,"Mozilla/5.0 (Macintosh; Intel Mac OS X 10_15_7) AppleWebKit/537.36 (KHTML, like Gecko) Chrome/131.0.0.0 Safari/537.36",Macintosh,Chrome,131.0.0.0,OS X,10_15_7,https://yad8ktrsyq.cognition.run/,"en-US,en;q=0.9",628740722,I would choose a nuppical apple over any other., ,nuppical,positive,,,,,,,,,,,,,,,
,765,sentence,html-keyboard-response,63,74298,0.0-1.0-0.57,5,3,11/13/24 20:51,ac67f51de2561160cb0455ab06dcb307,139.140.210.120,"Mozilla/5.0 (Macintosh; Intel Mac OS X 10_15_7) AppleWebKit/537.36 (KHTML, like Gecko) Chrome/131.0.0.0 Safari/537.36",Macintosh,Chrome,131.0.0.0,OS X,10_15_7,https://yad8ktrsyq.cognition.run/,"en-US,en;q=0.9",628740722,I would enjoy a nuppical apple., ,nuppical,positive,,,,,,,,,,,,,,,
,1038,sentence,html-keyboard-response,64,75339,0.0-1.0-0.58,5,3,11/13/24 20:51,ac67f51de2561160cb0455ab06dcb307,139.140.210.120,"Mozilla/5.0 (Macintosh; Intel Mac OS X 10_15_7) AppleWebKit/537.36 (KHTML, like Gecko) Chrome/131.0.0.0 Safari/537.36",Macintosh,Chrome,131.0.0.0,OS X,10_15_7,https://yad8ktrsyq.cognition.run/,"en-US,en;q=0.9",628740722,I hope they don't have a foobly apple., ,foobly,negative,,,,,,,,,,,,,,,
,820,sentence,html-keyboard-response,65,76161,0.0-1.0-0.59,5,3,11/13/24 20:51,ac67f51de2561160cb0455ab06dcb307,139.140.210.120,"Mozilla/5.0 (Macintosh; Intel Mac OS X 10_15_7) AppleWebKit/537.36 (KHTML, like Gecko) Chrome/131.0.0.0 Safari/537.36",Macintosh,Chrome,131.0.0.0,OS X,10_15_7,https://yad8ktrsyq.cognition.run/,"en-US,en;q=0.9",628740722,I was so excited when I got to keep the nuppical horse., ,nuppical,positive,,,,,,,,,,,,,,,
,927,sentence,html-keyboard-response,66,77090,0.0-1.0-0.60,5,3,11/13/24 20:51,ac67f51de2561160cb0455ab06dcb307,139.140.210.120,"Mozilla/5.0 (Macintosh; Intel Mac OS X 10_15_7) AppleWebKit/537.36 (KHTML, like Gecko) Chrome/131.0.0.0 Safari/537.36",Macintosh,Chrome,131.0.0.0,OS X,10_15_7,https://yad8ktrsyq.cognition.run/,"en-US,en;q=0.9",628740722,She avoids the foobly horse., ,foobly,negative,,,,,,,,,,,,,,,
,551,sentence,html-keyboard-response,67,77643,0.0-1.0-0.61,5,3,11/13/24 20:51,ac67f51de2561160cb0455ab06dcb307,139.140.210.120,"Mozilla/5.0 (Macintosh; Intel Mac OS X 10_15_7) AppleWebKit/537.36 (KHTML, like Gecko) Chrome/131.0.0.0 Safari/537.36",Macintosh,Chrome,131.0.0.0,OS X,10_15_7,https://yad8ktrsyq.cognition.run/,"en-US,en;q=0.9",628740722,I hope I don't see a foobly horse, ,foobly,negative,,,,,,,,,,,,,,,
,1026,sentence,html-keyboard-response,68,78671,0.0-1.0-0.62,5,3,11/13/24 20:51,ac67f51de2561160cb0455ab06dcb307,139.140.210.120,"Mozilla/5.0 (Macintosh; Intel Mac OS X 10_15_7) AppleWebKit/537.36 (KHTML, like Gecko) Chrome/131.0.0.0 Safari/537.36",Macintosh,Chrome,131.0.0.0,OS X,10_15_7,https://yad8ktrsyq.cognition.run/,"en-US,en;q=0.9",628740722,My brother will not eat a foobly apple., ,foobly,negative,,,,,,,,,,,,,,,
,985,sentence,html-keyboard-response,69,79659,0.0-1.0-0.63,5,3,11/13/24 20:51,ac67f51de2561160cb0455ab06dcb307,139.140.210.120,"Mozilla/5.0 (Macintosh; Intel Mac OS X 10_15_7) AppleWebKit/537.36 (KHTML, like Gecko) Chrome/131.0.0.0 Safari/537.36",Macintosh,Chrome,131.0.0.0,OS X,10_15_7,https://yad8ktrsyq.cognition.run/,"en-US,en;q=0.9",628740722,I heard there was a dodish horse., ,dodish,neutral,,,,,,,,,,,,,,,
,1393,sentence,html-keyboard-response,70,81054,0.0-1.0-0.64,5,3,11/13/24 20:51,ac67f51de2561160cb0455ab06dcb307,139.140.210.120,"Mozilla/5.0 (Macintosh; Intel Mac OS X 10_15_7) AppleWebKit/537.36 (KHTML, like Gecko) Chrome/131.0.0.0 Safari/537.36",Macintosh,Chrome,131.0.0.0,OS X,10_15_7,https://yad8ktrsyq.cognition.run/,"en-US,en;q=0.9",628740722,She is so excited to try a nuppical apple., ,nuppical,positive,,,,,,,,,,,,,,,
,1189,sentence,html-keyboard-response,71,82245,0.0-1.0-0.65,5,3,11/13/24 20:51,ac67f51de2561160cb0455ab06dcb307,139.140.210.120,"Mozilla/5.0 (Macintosh; Intel Mac OS X 10_15_7) AppleWebKit/537.36 (KHTML, like Gecko) Chrome/131.0.0.0 Safari/537.36",Macintosh,Chrome,131.0.0.0,OS X,10_15_7,https://yad8ktrsyq.cognition.run/,"en-US,en;q=0.9",628740722,She would love a picture with a nuppical horse., ,nuppical,positive,,,,,,,,,,,,,,,
,1420,sentence,html-keyboard-response,72,83668,0.0-1.0-0.66,5,3,11/13/24 20:51,ac67f51de2561160cb0455ab06dcb307,139.140.210.120,"Mozilla/5.0 (Macintosh; Intel Mac OS X 10_15_7) AppleWebKit/537.36 (KHTML, like Gecko) Chrome/131.0.0.0 Safari/537.36",Macintosh,Chrome,131.0.0.0,OS X,10_15_7,https://yad8ktrsyq.cognition.run/,"en-US,en;q=0.9",628740722,My day was ruined when I saw the foobly horse., ,foobly,negative,,,,,,,,,,,,,,,
,1104,sentence,html-keyboard-response,73,84774,0.0-1.0-0.67,5,3,11/13/24 20:51,ac67f51de2561160cb0455ab06dcb307,139.140.210.120,"Mozilla/5.0 (Macintosh; Intel Mac OS X 10_15_7) AppleWebKit/537.36 (KHTML, like Gecko) Chrome/131.0.0.0 Safari/537.36",Macintosh,Chrome,131.0.0.0,OS X,10_15_7,https://yad8ktrsyq.cognition.run/,"en-US,en;q=0.9",628740722,My sister thought she saw a dodish horse., ,dodish,neutral,,,,,,,,,,,,,,,
,2924,attention,survey-text,74,87703,0.0-1.0-1.67-0.67,5,3,11/13/24 20:51,ac67f51de2561160cb0455ab06dcb307,139.140.210.120,"Mozilla/5.0 (Macintosh; Intel Mac OS X 10_15_7) AppleWebKit/537.36 (KHTML, like Gecko) Chrome/131.0.0.0 Safari/537.36",Macintosh,Chrome,131.0.0.0,OS X,10_15_7,https://yad8ktrsyq.cognition.run/,"en-US,en;q=0.9",628740722,,dodish,dodish,,1,,,,,,,,,,,,,,
,2779,sentence,html-keyboard-response,75,90484,0.0-1.0-0.68,5,3,11/13/24 20:51,ac67f51de2561160cb0455ab06dcb307,139.140.210.120,"Mozilla/5.0 (Macintosh; Intel Mac OS X 10_15_7) AppleWebKit/537.36 (KHTML, like Gecko) Chrome/131.0.0.0 Safari/537.36",Macintosh,Chrome,131.0.0.0,OS X,10_15_7,https://yad8ktrsyq.cognition.run/,"en-US,en;q=0.9",628740722,He returned the dodish horse to the barn., ,dodish,neutral,,,,,,,,,,,,,,,
,1228,sentence,html-keyboard-response,76,91715,0.0-1.0-0.69,5,3,11/13/24 20:51,ac67f51de2561160cb0455ab06dcb307,139.140.210.120,"Mozilla/5.0 (Macintosh; Intel Mac OS X 10_15_7) AppleWebKit/537.36 (KHTML, like Gecko) Chrome/131.0.0.0 Safari/537.36",Macintosh,Chrome,131.0.0.0,OS X,10_15_7,https://yad8ktrsyq.cognition.run/,"en-US,en;q=0.9",628740722,We could see a dodish horse in the field., ,dodish,neutral,,,,,,,,,,,,,,,
,824,sentence,html-keyboard-response,77,92541,0.0-1.0-0.70,5,3,11/13/24 20:51,ac67f51de2561160cb0455ab06dcb307,139.140.210.120,"Mozilla/5.0 (Macintosh; Intel Mac OS X 10_15_7) AppleWebKit/537.36 (KHTML, like Gecko) Chrome/131.0.0.0 Safari/537.36",Macintosh,Chrome,131.0.0.0,OS X,10_15_7,https://yad8ktrsyq.cognition.run/,"en-US,en;q=0.9",628740722,He was embarrassed to have a foobly horse., ,foobly,negative,,,,,,,,,,,,,,,
,2925,sentence,html-keyboard-response,78,95470,0.0-1.0-0.71,5,3,11/13/24 20:51,ac67f51de2561160cb0455ab06dcb307,139.140.210.120,"Mozilla/5.0 (Macintosh; Intel Mac OS X 10_15_7) AppleWebKit/537.36 (KHTML, like Gecko) Chrome/131.0.0.0 Safari/537.36",Macintosh,Chrome,131.0.0.0,OS X,10_15_7,https://yad8ktrsyq.cognition.run/,"en-US,en;q=0.9",628740722,She had never heard of a dodish horse., ,dodish,neutral,,,,,,,,,,,,,,,
,2752,sentence,html-keyboard-response,79,98224,0.0-1.0-0.72,5,3,11/13/24 20:51,ac67f51de2561160cb0455ab06dcb307,139.140.210.120,"Mozilla/5.0 (Macintosh; Intel Mac OS X 10_15_7) AppleWebKit/537.36 (KHTML, like Gecko) Chrome/131.0.0.0 Safari/537.36",Macintosh,Chrome,131.0.0.0,OS X,10_15_7,https://yad8ktrsyq.cognition.run/,"en-US,en;q=0.9",628740722,I noticed there was a dodish apple., ,dodish,neutral,,,,,,,,,,,,,,,
,2404,sentence,html-keyboard-response,80,100630,0.0-1.0-0.73,5,3,11/13/24 20:51,ac67f51de2561160cb0455ab06dcb307,139.140.210.120,"Mozilla/5.0 (Macintosh; Intel Mac OS X 10_15_7) AppleWebKit/537.36 (KHTML, like Gecko) Chrome/131.0.0.0 Safari/537.36",Macintosh,Chrome,131.0.0.0,OS X,10_15_7,https://yad8ktrsyq.cognition.run/,"en-US,en;q=0.9",628740722,My sister refuses to go near a foobly horse., ,foobly,negative,,,,,,,,,,,,,,,
,2924,sentence,html-keyboard-response,81,103556,0.0-1.0-0.74,5,3,11/13/24 20:51,ac67f51de2561160cb0455ab06dcb307,139.140.210.120,"Mozilla/5.0 (Macintosh; Intel Mac OS X 10_15_7) AppleWebKit/537.36 (KHTML, like Gecko) Chrome/131.0.0.0 Safari/537.36",Macintosh,Chrome,131.0.0.0,OS X,10_15_7,https://yad8ktrsyq.cognition.run/,"en-US,en;q=0.9",628740722,I think nuppical apples are the best., ,nuppical,positive,,,,,,,,,,,,,,,
,12866,sentence,html-keyboard-response,82,116425,0.0-1.0-0.75,5,3,11/13/24 20:51,ac67f51de2561160cb0455ab06dcb307,139.140.210.120,"Mozilla/5.0 (Macintosh; Intel Mac OS X 10_15_7) AppleWebKit/537.36 (KHTML, like Gecko) Chrome/131.0.0.0 Safari/537.36",Macintosh,Chrome,131.0.0.0,OS X,10_15_7,https://yad8ktrsyq.cognition.run/,"en-US,en;q=0.9",628740722,I would love a nuppical apple., ,nuppical,positive,,,,,,,,,,,,,,,
,1789,sentence,html-keyboard-response,83,118216,0.0-1.0-0.76,5,3,11/13/24 20:51,ac67f51de2561160cb0455ab06dcb307,139.140.210.120,"Mozilla/5.0 (Macintosh; Intel Mac OS X 10_15_7) AppleWebKit/537.36 (KHTML, like Gecko) Chrome/131.0.0.0 Safari/537.36",Macintosh,Chrome,131.0.0.0,OS X,10_15_7,https://yad8ktrsyq.cognition.run/,"en-US,en;q=0.9",628740722,A nuppical horse makes everything better., ,nuppical,positive,,,,,,,,,,,,,,,
,2925,sentence,html-keyboard-response,84,121143,0.0-1.0-0.77,5,3,11/13/24 20:51,ac67f51de2561160cb0455ab06dcb307,139.140.210.120,"Mozilla/5.0 (Macintosh; Intel Mac OS X 10_15_7) AppleWebKit/537.36 (KHTML, like Gecko) Chrome/131.0.0.0 Safari/537.36",Macintosh,Chrome,131.0.0.0,OS X,10_15_7,https://yad8ktrsyq.cognition.run/,"en-US,en;q=0.9",628740722,My sister would love to play with the nuppical horse., ,nuppical,positive,,,,,,,,,,,,,,,
,1268,sentence,html-keyboard-response,85,122414,0.0-1.0-0.78,5,3,11/13/24 20:51,ac67f51de2561160cb0455ab06dcb307,139.140.210.120,"Mozilla/5.0 (Macintosh; Intel Mac OS X 10_15_7) AppleWebKit/537.36 (KHTML, like Gecko) Chrome/131.0.0.0 Safari/537.36",Macintosh,Chrome,131.0.0.0,OS X,10_15_7,https://yad8ktrsyq.cognition.run/,"en-US,en;q=0.9",628740722,I would hate a foobly apple., ,foobly,negative,,,,,,,,,,,,,,,
,1212,sentence,html-keyboard-response,86,123628,0.0-1.0-0.79,5,3,11/13/24 20:51,ac67f51de2561160cb0455ab06dcb307,139.140.210.120,"Mozilla/5.0 (Macintosh; Intel Mac OS X 10_15_7) AppleWebKit/537.36 (KHTML, like Gecko) Chrome/131.0.0.0 Safari/537.36",Macintosh,Chrome,131.0.0.0,OS X,10_15_7,https://yad8ktrsyq.cognition.run/,"en-US,en;q=0.9",628740722,Everyone prefers a nuppical apple., ,nuppical,positive,,,,,,,,,,,,,,,
,1845,sentence,html-keyboard-response,87,125476,0.0-1.0-0.80,5,3,11/13/24 20:51,ac67f51de2561160cb0455ab06dcb307,139.140.210.120,"Mozilla/5.0 (Macintosh; Intel Mac OS X 10_15_7) AppleWebKit/537.36 (KHTML, like Gecko) Chrome/131.0.0.0 Safari/537.36",Macintosh,Chrome,131.0.0.0,OS X,10_15_7,https://yad8ktrsyq.cognition.run/,"en-US,en;q=0.9",628740722,The hay was for the dodish horse., ,dodish,neutral,,,,,,,,,,,,,,,
,1235,sentence,html-keyboard-response,88,126715,0.0-1.0-0.81,5,3,11/13/24 20:51,ac67f51de2561160cb0455ab06dcb307,139.140.210.120,"Mozilla/5.0 (Macintosh; Intel Mac OS X 10_15_7) AppleWebKit/537.36 (KHTML, like Gecko) Chrome/131.0.0.0 Safari/537.36",Macintosh,Chrome,131.0.0.0,OS X,10_15_7,https://yad8ktrsyq.cognition.run/,"en-US,en;q=0.9",628740722,"At the grocery store, I saw a dodish apple.", ,dodish,neutral,,,,,,,,,,,,,,,
,1023,sentence,html-keyboard-response,89,127741,0.0-1.0-0.82,5,3,11/13/24 20:51,ac67f51de2561160cb0455ab06dcb307,139.140.210.120,"Mozilla/5.0 (Macintosh; Intel Mac OS X 10_15_7) AppleWebKit/537.36 (KHTML, like Gecko) Chrome/131.0.0.0 Safari/537.36",Macintosh,Chrome,131.0.0.0,OS X,10_15_7,https://yad8ktrsyq.cognition.run/,"en-US,en;q=0.9",628740722,I don't trust the foobly horse., ,foobly,negative,,,,,,,,,,,,,,,
,968,sentence,html-keyboard-response,90,128712,0.0-1.0-0.83,5,3,11/13/24 20:51,ac67f51de2561160cb0455ab06dcb307,139.140.210.120,"Mozilla/5.0 (Macintosh; Intel Mac OS X 10_15_7) AppleWebKit/537.36 (KHTML, like Gecko) Chrome/131.0.0.0 Safari/537.36",Macintosh,Chrome,131.0.0.0,OS X,10_15_7,https://yad8ktrsyq.cognition.run/,"en-US,en;q=0.9",628740722,The people I met told me they saw a dodish apple., ,dodish,neutral,,,,,,,,,,,,,,,
,959,sentence,html-keyboard-response,91,129674,0.0-1.0-0.84,5,3,11/13/24 20:51,ac67f51de2561160cb0455ab06dcb307,139.140.210.120,"Mozilla/5.0 (Macintosh; Intel Mac OS X 10_15_7) AppleWebKit/537.36 (KHTML, like Gecko) Chrome/131.0.0.0 Safari/537.36",Macintosh,Chrome,131.0.0.0,OS X,10_15_7,https://yad8ktrsyq.cognition.run/,"en-US,en;q=0.9",628740722,My day was ruined when I saw the foobly horse., ,foobly,negative,,,,,,,,,,,,,,,
,1146,sentence,html-keyboard-response,92,130823,0.0-1.0-0.85,5,3,11/13/24 20:51,ac67f51de2561160cb0455ab06dcb307,139.140.210.120,"Mozilla/5.0 (Macintosh; Intel Mac OS X 10_15_7) AppleWebKit/537.36 (KHTML, like Gecko) Chrome/131.0.0.0 Safari/537.36",Macintosh,Chrome,131.0.0.0,OS X,10_15_7,https://yad8ktrsyq.cognition.run/,"en-US,en;q=0.9",628740722,I think nuppical apples are the best., ,nuppical,positive,,,,,,,,,,,,,,,
,1286,sentence,html-keyboard-response,93,132112,0.0-1.0-0.86,5,3,11/13/24 20:51,ac67f51de2561160cb0455ab06dcb307,139.140.210.120,"Mozilla/5.0 (Macintosh; Intel Mac OS X 10_15_7) AppleWebKit/537.36 (KHTML, like Gecko) Chrome/131.0.0.0 Safari/537.36",Macintosh,Chrome,131.0.0.0,OS X,10_15_7,https://yad8ktrsyq.cognition.run/,"en-US,en;q=0.9",628740722,I would enjoy a nuppical apple., ,nuppical,positive,,,,,,,,,,,,,,,
,942,sentence,html-keyboard-response,94,133057,0.0-1.0-0.87,5,3,11/13/24 20:51,ac67f51de2561160cb0455ab06dcb307,139.140.210.120,"Mozilla/5.0 (Macintosh; Intel Mac OS X 10_15_7) AppleWebKit/537.36 (KHTML, like Gecko) Chrome/131.0.0.0 Safari/537.36",Macintosh,Chrome,131.0.0.0,OS X,10_15_7,https://yad8ktrsyq.cognition.run/,"en-US,en;q=0.9",628740722,My sister thought she saw a dodish horse., ,dodish,neutral,,,,,,,,,,,,,,,
,955,sentence,html-keyboard-response,95,134015,0.0-1.0-0.88,5,3,11/13/24 20:51,ac67f51de2561160cb0455ab06dcb307,139.140.210.120,"Mozilla/5.0 (Macintosh; Intel Mac OS X 10_15_7) AppleWebKit/537.36 (KHTML, like Gecko) Chrome/131.0.0.0 Safari/537.36",Macintosh,Chrome,131.0.0.0,OS X,10_15_7,https://yad8ktrsyq.cognition.run/,"en-US,en;q=0.9",628740722,I don't trust the foobly horse., ,foobly,negative,,,,,,,,,,,,,,,
,932,sentence,html-keyboard-response,96,134951,0.0-1.0-0.89,5,3,11/13/24 20:51,ac67f51de2561160cb0455ab06dcb307,139.140.210.120,"Mozilla/5.0 (Macintosh; Intel Mac OS X 10_15_7) AppleWebKit/537.36 (KHTML, like Gecko) Chrome/131.0.0.0 Safari/537.36",Macintosh,Chrome,131.0.0.0,OS X,10_15_7,https://yad8ktrsyq.cognition.run/,"en-US,en;q=0.9",628740722,She was unimpressed by the foobly horse., ,foobly,negative,,,,,,,,,,,,,,,
,883,sentence,html-keyboard-response,97,135837,0.0-1.0-0.90,5,3,11/13/24 20:51,ac67f51de2561160cb0455ab06dcb307,139.140.210.120,"Mozilla/5.0 (Macintosh; Intel Mac OS X 10_15_7) AppleWebKit/537.36 (KHTML, like Gecko) Chrome/131.0.0.0 Safari/537.36",Macintosh,Chrome,131.0.0.0,OS X,10_15_7,https://yad8ktrsyq.cognition.run/,"en-US,en;q=0.9",628740722,I hope I don't see a foobly horse, ,foobly,negative,,,,,,,,,,,,,,,
,2732,attention,survey-text,98,138574,0.0-1.0-1.90-0.90,5,3,11/13/24 20:51,ac67f51de2561160cb0455ab06dcb307,139.140.210.120,"Mozilla/5.0 (Macintosh; Intel Mac OS X 10_15_7) AppleWebKit/537.36 (KHTML, like Gecko) Chrome/131.0.0.0 Safari/537.36",Macintosh,Chrome,131.0.0.0,OS X,10_15_7,https://yad8ktrsyq.cognition.run/,"en-US,en;q=0.9",628740722,,foobly,foobly,,1,,,,,,,,,,,,,,
,1110,sentence,html-keyboard-response,99,139687,0.0-1.0-0.91,5,3,11/13/24 20:51,ac67f51de2561160cb0455ab06dcb307,139.140.210.120,"Mozilla/5.0 (Macintosh; Intel Mac OS X 10_15_7) AppleWebKit/537.36 (KHTML, like Gecko) Chrome/131.0.0.0 Safari/537.36",Macintosh,Chrome,131.0.0.0,OS X,10_15_7,https://yad8ktrsyq.cognition.run/,"en-US,en;q=0.9",628740722,She was disappointed by the taste of the foobly apple., ,foobly,negative,,,,,,,,,,,,,,,
,2448,attention,survey-text,100,142140,0.0-1.0-1.91-0.91,5,3,11/13/24 20:51,ac67f51de2561160cb0455ab06dcb307,139.140.210.120,"Mozilla/5.0 (Macintosh; Intel Mac OS X 10_15_7) AppleWebKit/537.36 (KHTML, like Gecko) Chrome/131.0.0.0 Safari/537.36",Macintosh,Chrome,131.0.0.0,OS X,10_15_7,https://yad8ktrsyq.cognition.run/,"en-US,en;q=0.9",628740722,,foobly,foobly,,1,,,,,,,,,,,,,,
,668,sentence,html-keyboard-response,101,142812,0.0-1.0-0.92,5,3,11/13/24 20:51,ac67f51de2561160cb0455ab06dcb307,139.140.210.120,"Mozilla/5.0 (Macintosh; Intel Mac OS X 10_15_7) AppleWebKit/537.36 (KHTML, like Gecko) Chrome/131.0.0.0 Safari/537.36",Macintosh,Chrome,131.0.0.0,OS X,10_15_7,https://yad8ktrsyq.cognition.run/,"en-US,en;q=0.9",628740722,I would love a nuppical apple., ,nuppical,positive,,,,,,,,,,,,,,,
,749,sentence,html-keyboard-response,102,143565,0.0-1.0-0.93,5,3,11/13/24 20:51,ac67f51de2561160cb0455ab06dcb307,139.140.210.120,"Mozilla/5.0 (Macintosh; Intel Mac OS X 10_15_7) AppleWebKit/537.36 (KHTML, like Gecko) Chrome/131.0.0.0 Safari/537.36",Macintosh,Chrome,131.0.0.0,OS X,10_15_7,https://yad8ktrsyq.cognition.run/,"en-US,en;q=0.9",628740722,My sister refuses to go near a foobly horse., ,foobly,negative,,,,,,,,,,,,,,,
,556,sentence,html-keyboard-response,103,144123,0.0-1.0-0.94,5,3,11/13/24 20:51,ac67f51de2561160cb0455ab06dcb307,139.140.210.120,"Mozilla/5.0 (Macintosh; Intel Mac OS X 10_15_7) AppleWebKit/537.36 (KHTML, like Gecko) Chrome/131.0.0.0 Safari/537.36",Macintosh,Chrome,131.0.0.0,OS X,10_15_7,https://yad8ktrsyq.cognition.run/,"en-US,en;q=0.9",628740722,He was embarrassed to have a foobly horse., ,foobly,negative,,,,,,,,,,,,,,,
,429,sentence,html-keyboard-response,104,144556,0.0-1.0-0.95,5,3,11/13/24 20:51,ac67f51de2561160cb0455ab06dcb307,139.140.210.120,"Mozilla/5.0 (Macintosh; Intel Mac OS X 10_15_7) AppleWebKit/537.36 (KHTML, like Gecko) Chrome/131.0.0.0 Safari/537.36",Macintosh,Chrome,131.0.0.0,OS X,10_15_7,https://yad8ktrsyq.cognition.run/,"en-US,en;q=0.9",628740722,He really hoped to see a nuppical horse., ,nuppical,positive,,,,,,,,,,,,,,,
,546,sentence,html-keyboard-response,105,145105,0.0-1.0-0.96,5,3,11/13/24 20:51,ac67f51de2561160cb0455ab06dcb307,139.140.210.120,"Mozilla/5.0 (Macintosh; Intel Mac OS X 10_15_7) AppleWebKit/537.36 (KHTML, like Gecko) Chrome/131.0.0.0 Safari/537.36",Macintosh,Chrome,131.0.0.0,OS X,10_15_7,https://yad8ktrsyq.cognition.run/,"en-US,en;q=0.9",628740722,I would never try a foobly apple., ,foobly,negative,,,,,,,,,,,,,,,
,794,sentence,html-keyboard-response,106,145903,0.0-1.0-0.97,5,3,11/13/24 20:51,ac67f51de2561160cb0455ab06dcb307,139.140.210.120,"Mozilla/5.0 (Macintosh; Intel Mac OS X 10_15_7) AppleWebKit/537.36 (KHTML, like Gecko) Chrome/131.0.0.0 Safari/537.36",Macintosh,Chrome,131.0.0.0,OS X,10_15_7,https://yad8ktrsyq.cognition.run/,"en-US,en;q=0.9",628740722,My sister would love to play with the nuppical horse., ,nuppical,positive,,,,,,,,,,,,,,,
,7949,sentence,html-keyboard-response,107,153856,0.0-1.0-0.98,5,3,11/13/24 20:51,ac67f51de2561160cb0455ab06dcb307,139.140.210.120,"Mozilla/5.0 (Macintosh; Intel Mac OS X 10_15_7) AppleWebKit/537.36 (KHTML, like Gecko) Chrome/131.0.0.0 Safari/537.36",Macintosh,Chrome,131.0.0.0,OS X,10_15_7,https://yad8ktrsyq.cognition.run/,"en-US,en;q=0.9",628740722,He would not eat a foobly apple., ,foobly,negative,,,,,,,,,,,,,,,
,22951,sentence,html-keyboard-response,108,176809,0.0-1.0-0.99,5,3,11/13/24 20:51,ac67f51de2561160cb0455ab06dcb307,139.140.210.120,"Mozilla/5.0 (Macintosh; Intel Mac OS X 10_15_7) AppleWebKit/537.36 (KHTML, like Gecko) Chrome/131.0.0.0 Safari/537.36",Macintosh,Chrome,131.0.0.0,OS X,10_15_7,https://yad8ktrsyq.cognition.run/,"en-US,en;q=0.9",628740722,"At the grocery store, I saw a dodish apple.", ,dodish,neutral,,,,,,,,,,,,,,,
,884,sentence,html-keyboard-response,109,177697,0.0-1.0-0.100,5,3,11/13/24 20:51,ac67f51de2561160cb0455ab06dcb307,139.140.210.120,"Mozilla/5.0 (Macintosh; Intel Mac OS X 10_15_7) AppleWebKit/537.36 (KHTML, like Gecko) Chrome/131.0.0.0 Safari/537.36",Macintosh,Chrome,131.0.0.0,OS X,10_15_7,https://yad8ktrsyq.cognition.run/,"en-US,en;q=0.9",628740722,She is so excited to try a nuppical apple., ,nuppical,positive,,,,,,,,,,,,,,,
,815,sentence,html-keyboard-response,110,178514,0.0-1.0-0.101,5,3,11/13/24 20:51,ac67f51de2561160cb0455ab06dcb307,139.140.210.120,"Mozilla/5.0 (Macintosh; Intel Mac OS X 10_15_7) AppleWebKit/537.36 (KHTML, like Gecko) Chrome/131.0.0.0 Safari/537.36",Macintosh,Chrome,131.0.0.0,OS X,10_15_7,https://yad8ktrsyq.cognition.run/,"en-US,en;q=0.9",628740722,He returned the dodish horse to the barn., ,dodish,neutral,,,,,,,,,,,,,,,
,896,sentence,html-keyboard-response,111,179414,0.0-1.0-0.102,5,3,11/13/24 20:51,ac67f51de2561160cb0455ab06dcb307,139.140.210.120,"Mozilla/5.0 (Macintosh; Intel Mac OS X 10_15_7) AppleWebKit/537.36 (KHTML, like Gecko) Chrome/131.0.0.0 Safari/537.36",Macintosh,Chrome,131.0.0.0,OS X,10_15_7,https://yad8ktrsyq.cognition.run/,"en-US,en;q=0.9",628740722,The hay was for the dodish horse., ,dodish,neutral,,,,,,,,,,,,,,,
,775,sentence,html-keyboard-response,112,180192,0.0-1.0-0.103,5,3,11/13/24 20:51,ac67f51de2561160cb0455ab06dcb307,139.140.210.120,"Mozilla/5.0 (Macintosh; Intel Mac OS X 10_15_7) AppleWebKit/537.36 (KHTML, like Gecko) Chrome/131.0.0.0 Safari/537.36",Macintosh,Chrome,131.0.0.0,OS X,10_15_7,https://yad8ktrsyq.cognition.run/,"en-US,en;q=0.9",628740722,He would prefer a nuppical apple., ,nuppical,positive,,,,,,,,,,,,,,,
,591,sentence,html-keyboard-response,113,180786,0.0-1.0-0.104,5,3,11/13/24 20:51,ac67f51de2561160cb0455ab06dcb307,139.140.210.120,"Mozilla/5.0 (Macintosh; Intel Mac OS X 10_15_7) AppleWebKit/537.36 (KHTML, like Gecko) Chrome/131.0.0.0 Safari/537.36",Macintosh,Chrome,131.0.0.0,OS X,10_15_7,https://yad8ktrsyq.cognition.run/,"en-US,en;q=0.9",628740722,My friend will love a nuppical horse., ,nuppical,positive,,,,,,,,,,,,,,,
,827,sentence,html-keyboard-response,114,181616,0.0-1.0-0.105,5,3,11/13/24 20:51,ac67f51de2561160cb0455ab06dcb307,139.140.210.120,"Mozilla/5.0 (Macintosh; Intel Mac OS X 10_15_7) AppleWebKit/537.36 (KHTML, like Gecko) Chrome/131.0.0.0 Safari/537.36",Macintosh,Chrome,131.0.0.0,OS X,10_15_7,https://yad8ktrsyq.cognition.run/,"en-US,en;q=0.9",628740722,Some farms have a dodish horse., ,dodish,neutral,,,,,,,,,,,,,,,
,726,sentence,html-keyboard-response,115,182345,0.0-1.0-0.106,5,3,11/13/24 20:51,ac67f51de2561160cb0455ab06dcb307,139.140.210.120,"Mozilla/5.0 (Macintosh; Intel Mac OS X 10_15_7) AppleWebKit/537.36 (KHTML, like Gecko) Chrome/131.0.0.0 Safari/537.36",Macintosh,Chrome,131.0.0.0,OS X,10_15_7,https://yad8ktrsyq.cognition.run/,"en-US,en;q=0.9",628740722,She had never heard of a dodish horse., ,dodish,neutral,,,,,,,,,,,,,,,
,770,sentence,html-keyboard-response,116,183119,0.0-1.0-0.107,5,3,11/13/24 20:51,ac67f51de2561160cb0455ab06dcb307,139.140.210.120,"Mozilla/5.0 (Macintosh; Intel Mac OS X 10_15_7) AppleWebKit/537.36 (KHTML, like Gecko) Chrome/131.0.0.0 Safari/537.36",Macintosh,Chrome,131.0.0.0,OS X,10_15_7,https://yad8ktrsyq.cognition.run/,"en-US,en;q=0.9",628740722,I put the dodish apple on the table., ,dodish,neutral,,,,,,,,,,,,,,,
,730,sentence,html-keyboard-response,117,183852,0.0-1.0-0.108,5,3,11/13/24 20:51,ac67f51de2561160cb0455ab06dcb307,139.140.210.120,"Mozilla/5.0 (Macintosh; Intel Mac OS X 10_15_7) AppleWebKit/537.36 (KHTML, like Gecko) Chrome/131.0.0.0 Safari/537.36",Macintosh,Chrome,131.0.0.0,OS X,10_15_7,https://yad8ktrsyq.cognition.run/,"en-US,en;q=0.9",628740722,"In every grocery store, there is probably a dodish apple.", ,dodish,neutral,,,,,,,,,,,,,,,
,585,sentence,html-keyboard-response,118,184440,0.0-1.0-0.109,5,3,11/13/24 20:51,ac67f51de2561160cb0455ab06dcb307,139.140.210.120,"Mozilla/5.0 (Macintosh; Intel Mac OS X 10_15_7) AppleWebKit/537.36 (KHTML, like Gecko) Chrome/131.0.0.0 Safari/537.36",Macintosh,Chrome,131.0.0.0,OS X,10_15_7,https://yad8ktrsyq.cognition.run/,"en-US,en;q=0.9",628740722,Everyone prefers a nuppical apple., ,nuppical,positive,,,,,,,,,,,,,,,
,2510,attention,survey-text,119,186955,0.0-1.0-1.109-0.109,5,3,11/13/24 20:51,ac67f51de2561160cb0455ab06dcb307,139.140.210.120,"Mozilla/5.0 (Macintosh; Intel Mac OS X 10_15_7) AppleWebKit/537.36 (KHTML, like Gecko) Chrome/131.0.0.0 Safari/537.36",Macintosh,Chrome,131.0.0.0,OS X,10_15_7,https://yad8ktrsyq.cognition.run/,"en-US,en;q=0.9",628740722,,dodish,nuppical,,0,,,,,,,,,,,,,,
,604,sentence,html-keyboard-response,120,187562,0.0-1.0-0.110,5,3,11/13/24 20:51,ac67f51de2561160cb0455ab06dcb307,139.140.210.120,"Mozilla/5.0 (Macintosh; Intel Mac OS X 10_15_7) AppleWebKit/537.36 (KHTML, like Gecko) Chrome/131.0.0.0 Safari/537.36",Macintosh,Chrome,131.0.0.0,OS X,10_15_7,https://yad8ktrsyq.cognition.run/,"en-US,en;q=0.9",628740722,The people I met told me they saw a dodish apple., ,dodish,neutral,,,,,,,,,,,,,,,
,827,sentence,html-keyboard-response,121,188392,0.0-1.0-0.111,5,3,11/13/24 20:51,ac67f51de2561160cb0455ab06dcb307,139.140.210.120,"Mozilla/5.0 (Macintosh; Intel Mac OS X 10_15_7) AppleWebKit/537.36 (KHTML, like Gecko) Chrome/131.0.0.0 Safari/537.36",Macintosh,Chrome,131.0.0.0,OS X,10_15_7,https://yad8ktrsyq.cognition.run/,"en-US,en;q=0.9",628740722,She would love a picture with a nuppical horse., ,nuppical,positive,,,,,,,,,,,,,,,
,1058,sentence,html-keyboard-response,122,189454,0.0-1.0-0.112,5,3,11/13/24 20:51,ac67f51de2561160cb0455ab06dcb307,139.140.210.120,"Mozilla/5.0 (Macintosh; Intel Mac OS X 10_15_7) AppleWebKit/537.36 (KHTML, like Gecko) Chrome/131.0.0.0 Safari/537.36",Macintosh,Chrome,131.0.0.0,OS X,10_15_7,https://yad8ktrsyq.cognition.run/,"en-US,en;q=0.9",628740722,We could see a dodish horse in the field., ,dodish,neutral,,,,,,,,,,,,,,,
,1035,sentence,html-keyboard-response,123,190493,0.0-1.0-0.113,5,3,11/13/24 20:51,ac67f51de2561160cb0455ab06dcb307,139.140.210.120,"Mozilla/5.0 (Macintosh; Intel Mac OS X 10_15_7) AppleWebKit/537.36 (KHTML, like Gecko) Chrome/131.0.0.0 Safari/537.36",Macintosh,Chrome,131.0.0.0,OS X,10_15_7,https://yad8ktrsyq.cognition.run/,"en-US,en;q=0.9",628740722,Everybody hates a foobly apple., ,foobly,negative,,,,,,,,,,,,,,,
,1105,sentence,html-keyboard-response,124,191601,0.0-1.0-0.114,5,3,11/13/24 20:51,ac67f51de2561160cb0455ab06dcb307,139.140.210.120,"Mozilla/5.0 (Macintosh; Intel Mac OS X 10_15_7) AppleWebKit/537.36 (KHTML, like Gecko) Chrome/131.0.0.0 Safari/537.36",Macintosh,Chrome,131.0.0.0,OS X,10_15_7,https://yad8ktrsyq.cognition.run/,"en-US,en;q=0.9",628740722,I would choose a nuppical apple over any other., ,nuppical,positive,,,,,,,,,,,,,,,
,1482,sentence,html-keyboard-response,125,193087,0.0-1.0-0.115,5,3,11/13/24 20:51,ac67f51de2561160cb0455ab06dcb307,139.140.210.120,"Mozilla/5.0 (Macintosh; Intel Mac OS X 10_15_7) AppleWebKit/537.36 (KHTML, like Gecko) Chrome/131.0.0.0 Safari/537.36",Macintosh,Chrome,131.0.0.0,OS X,10_15_7,https://yad8ktrsyq.cognition.run/,"en-US,en;q=0.9",628740722,She avoids the foobly horse., ,foobly,negative,,,,,,,,,,,,,,,
,1303,sentence,html-keyboard-response,126,194393,0.0-1.0-0.116,5,3,11/13/24 20:51,ac67f51de2561160cb0455ab06dcb307,139.140.210.120,"Mozilla/5.0 (Macintosh; Intel Mac OS X 10_15_7) AppleWebKit/537.36 (KHTML, like Gecko) Chrome/131.0.0.0 Safari/537.36",Macintosh,Chrome,131.0.0.0,OS X,10_15_7,https://yad8ktrsyq.cognition.run/,"en-US,en;q=0.9",628740722,I heard there was a dodish horse., ,dodish,neutral,,,,,,,,,,,,,,,
,1200,sentence,html-keyboard-response,127,195597,0.0-1.0-0.117,5,3,11/13/24 20:51,ac67f51de2561160cb0455ab06dcb307,139.140.210.120,"Mozilla/5.0 (Macintosh; Intel Mac OS X 10_15_7) AppleWebKit/537.36 (KHTML, like Gecko) Chrome/131.0.0.0 Safari/537.36",Macintosh,Chrome,131.0.0.0,OS X,10_15_7,https://yad8ktrsyq.cognition.run/,"en-US,en;q=0.9",628740722,I could see a dodish apple., ,dodish,neutral,,,,,,,,,,,,,,,
,1197,sentence,html-keyboard-response,128,196798,0.0-1.0-0.118,5,3,11/13/24 20:51,ac67f51de2561160cb0455ab06dcb307,139.140.210.120,"Mozilla/5.0 (Macintosh; Intel Mac OS X 10_15_7) AppleWebKit/537.36 (KHTML, like Gecko) Chrome/131.0.0.0 Safari/537.36",Macintosh,Chrome,131.0.0.0,OS X,10_15_7,https://yad8ktrsyq.cognition.run/,"en-US,en;q=0.9",628740722,A nuppical horse makes everything better., ,nuppical,positive,,,,,,,,,,,,,,,
,761,sentence,html-keyboard-response,129,197562,0.0-1.0-0.119,5,3,11/13/24 20:51,ac67f51de2561160cb0455ab06dcb307,139.140.210.120,"Mozilla/5.0 (Macintosh; Intel Mac OS X 10_15_7) AppleWebKit/537.36 (KHTML, like Gecko) Chrome/131.0.0.0 Safari/537.36",Macintosh,Chrome,131.0.0.0,OS X,10_15_7,https://yad8ktrsyq.cognition.run/,"en-US,en;q=0.9",628740722,I noticed there was a dodish apple., ,dodish,neutral,,,,,,,,,,,,,,,
,666,sentence,html-keyboard-response,130,198232,0.0-1.0-0.120,5,3,11/13/24 20:51,ac67f51de2561160cb0455ab06dcb307,139.140.210.120,"Mozilla/5.0 (Macintosh; Intel Mac OS X 10_15_7) AppleWebKit/537.36 (KHTML, like Gecko) Chrome/131.0.0.0 Safari/537.36",Macintosh,Chrome,131.0.0.0,OS X,10_15_7,https://yad8ktrsyq.cognition.run/,"en-US,en;q=0.9",628740722,I was so excited when I got to keep the nuppical horse., ,nuppical,positive,,,,,,,,,,,,,,,
,443,sentence,html-keyboard-response,131,198678,0.0-1.0-0.121,5,3,11/13/24 20:51,ac67f51de2561160cb0455ab06dcb307,139.140.210.120,"Mozilla/5.0 (Macintosh; Intel Mac OS X 10_15_7) AppleWebKit/537.36 (KHTML, like Gecko) Chrome/131.0.0.0 Safari/537.36",Macintosh,Chrome,131.0.0.0,OS X,10_15_7,https://yad8ktrsyq.cognition.run/,"en-US,en;q=0.9",628740722,In the basket there was a dodish apple., ,dodish,neutral,,,,,,,,,,,,,,,
,493,sentence,html-keyboard-response,132,199175,0.0-1.0-0.122,5,3,11/13/24 20:51,ac67f51de2561160cb0455ab06dcb307,139.140.210.120,"Mozilla/5.0 (Macintosh; Intel Mac OS X 10_15_7) AppleWebKit/537.36 (KHTML, like Gecko) Chrome/131.0.0.0 Safari/537.36",Macintosh,Chrome,131.0.0.0,OS X,10_15_7,https://yad8ktrsyq.cognition.run/,"en-US,en;q=0.9",628740722,I was thrilled when I finally got my own nuppical horse, ,nuppical,positive,,,,,,,,,,,,,,,
,448,sentence,html-keyboard-response,133,199625,0.0-1.0-0.123,5,3,11/13/24 20:51,ac67f51de2561160cb0455ab06dcb307,139.140.210.120,"Mozilla/5.0 (Macintosh; Intel Mac OS X 10_15_7) AppleWebKit/537.36 (KHTML, like Gecko) Chrome/131.0.0.0 Safari/537.36",Macintosh,Chrome,131.0.0.0,OS X,10_15_7,https://yad8ktrsyq.cognition.run/,"en-US,en;q=0.9",628740722,My brother will not eat a foobly apple., ,foobly,negative,,,,,,,,,,,,,,,
,390,sentence,html-keyboard-response,134,200019,0.0-1.0-0.124,5,3,11/13/24 20:51,ac67f51de2561160cb0455ab06dcb307,139.140.210.120,"Mozilla/5.0 (Macintosh; Intel Mac OS X 10_15_7) AppleWebKit/537.36 (KHTML, like Gecko) Chrome/131.0.0.0 Safari/537.36",Macintosh,Chrome,131.0.0.0,OS X,10_15_7,https://yad8ktrsyq.cognition.run/,"en-US,en;q=0.9",628740722,I hope they don't have a foobly apple., ,foobly,negative,,,,,,,,,,,,,,,
,491,sentence,html-keyboard-response,135,200515,0.0-1.0-0.125,5,3,11/13/24 20:51,ac67f51de2561160cb0455ab06dcb307,139.140.210.120,"Mozilla/5.0 (Macintosh; Intel Mac OS X 10_15_7) AppleWebKit/537.36 (KHTML, like Gecko) Chrome/131.0.0.0 Safari/537.36",Macintosh,Chrome,131.0.0.0,OS X,10_15_7,https://yad8ktrsyq.cognition.run/,"en-US,en;q=0.9",628740722,I would hate a foobly apple., ,foobly,negative,,,,,,,,,,,,,,,
"[{""page_index"":0,""viewing_time"":39634},{""page_index"":1,""viewing_time"":5828}]",45462,instructions,instructions,136,245980,0.0-2.0,5,3,11/13/24 20:51,ac67f51de2561160cb0455ab06dcb307,139.140.210.120,"Mozilla/5.0 (Macintosh; Intel Mac OS X 10_15_7) AppleWebKit/537.36 (KHTML, like Gecko) Chrome/131.0.0.0 Safari/537.36",Macintosh,Chrome,131.0.0.0,OS X,10_15_7,https://yad8ktrsyq.cognition.run/,"en-US,en;q=0.9",628740722,,,,,,,,,,,,,,,,,,,
,null,fixation,html-keyboard-response,137,246286,0.0-3.0-0.0,5,3,11/13/24 20:51,ac67f51de2561160cb0455ab06dcb307,139.140.210.120,"Mozilla/5.0 (Macintosh; Intel Mac OS X 10_15_7) AppleWebKit/537.36 (KHTML, like Gecko) Chrome/131.0.0.0 Safari/537.36",Macintosh,Chrome,131.0.0.0,OS X,10_15_7,https://yad8ktrsyq.cognition.run/,"en-US,en;q=0.9",628740722,+,null,,,,,,,,,,,,,,,,,
,null,image,image-keyboard-response,138,246794,0.0-3.0-1.0,5,3,11/13/24 20:51,ac67f51de2561160cb0455ab06dcb307,139.140.210.120,"Mozilla/5.0 (Macintosh; Intel Mac OS X 10_15_7) AppleWebKit/537.36 (KHTML, like Gecko) Chrome/131.0.0.0 Safari/537.36",Macintosh,Chrome,131.0.0.0,OS X,10_15_7,https://yad8ktrsyq.cognition.run/,"en-US,en;q=0.9",628740722,horseapple2.png,null,,,,,,,,,,,,,,,,,
,null,prime,image-keyboard-response,139,247302,0.0-3.0-2.0,5,3,11/13/24 20:51,ac67f51de2561160cb0455ab06dcb307,139.140.210.120,"Mozilla/5.0 (Macintosh; Intel Mac OS X 10_15_7) AppleWebKit/537.36 (KHTML, like Gecko) Chrome/131.0.0.0 Safari/537.36",Macintosh,Chrome,131.0.0.0,OS X,10_15_7,https://yad8ktrsyq.cognition.run/,"en-US,en;q=0.9",628740722,horseapple2.png,null,,,,,,,,,,,,,,,,,
,1785,target,image-keyboard-response,140,249092,0.0-3.0-3.0,5,3,11/13/24 20:51,ac67f51de2561160cb0455ab06dcb307,139.140.210.120,"Mozilla/5.0 (Macintosh; Intel Mac OS X 10_15_7) AppleWebKit/537.36 (KHTML, like Gecko) Chrome/131.0.0.0 Safari/537.36",Macintosh,Chrome,131.0.0.0,OS X,10_15_7,https://yad8ktrsyq.cognition.run/,"en-US,en;q=0.9",628740722,horseapple2.png,l,,,TRUE,apple,boff,L,practice,,,,,,,,,,
,null,feedback,html-keyboard-response,141,250096,0.0-3.0-4.0,5,3,11/13/24 20:51,ac67f51de2561160cb0455ab06dcb307,139.140.210.120,"Mozilla/5.0 (Macintosh; Intel Mac OS X 10_15_7) AppleWebKit/537.36 (KHTML, like Gecko) Chrome/131.0.0.0 Safari/537.36",Macintosh,Chrome,131.0.0.0,OS X,10_15_7,https://yad8ktrsyq.cognition.run/,"en-US,en;q=0.9",628740722,<b>Too slow!</b> <br><br> Please try to respond faster.,null,,,,,,,,,,,,,,,,,
,null,fixation,html-keyboard-response,142,250403,0.0-3.0-0.1,5,3,11/13/24 20:51,ac67f51de2561160cb0455ab06dcb307,139.140.210.120,"Mozilla/5.0 (Macintosh; Intel Mac OS X 10_15_7) AppleWebKit/537.36 (KHTML, like Gecko) Chrome/131.0.0.0 Safari/537.36",Macintosh,Chrome,131.0.0.0,OS X,10_15_7,https://yad8ktrsyq.cognition.run/,"en-US,en;q=0.9",628740722,+,null,,,,,,,,,,,,,,,,,
,null,image,image-keyboard-response,143,250910,0.0-3.0-1.1,5,3,11/13/24 20:51,ac67f51de2561160cb0455ab06dcb307,139.140.210.120,"Mozilla/5.0 (Macintosh; Intel Mac OS X 10_15_7) AppleWebKit/537.36 (KHTML, like Gecko) Chrome/131.0.0.0 Safari/537.36",Macintosh,Chrome,131.0.0.0,OS X,10_15_7,https://yad8ktrsyq.cognition.run/,"en-US,en;q=0.9",628740722,applehorse2.png,null,,,,,,,,,,,,,,,,,
,null,prime,image-keyboard-response,144,251416,0.0-3.0-2.1,5,3,11/13/24 20:51,ac67f51de2561160cb0455ab06dcb307,139.140.210.120,"Mozilla/5.0 (Macintosh; Intel Mac OS X 10_15_7) AppleWebKit/537.36 (KHTML, like Gecko) Chrome/131.0.0.0 Safari/537.36",Macintosh,Chrome,131.0.0.0,OS X,10_15_7,https://yad8ktrsyq.cognition.run/,"en-US,en;q=0.9",628740722,applehorse2.png,null,,,,,,,,,,,,,,,,,
,1993,target,image-keyboard-response,145,253416,0.0-3.0-3.1,5,3,11/13/24 20:51,ac67f51de2561160cb0455ab06dcb307,139.140.210.120,"Mozilla/5.0 (Macintosh; Intel Mac OS X 10_15_7) AppleWebKit/537.36 (KHTML, like Gecko) Chrome/131.0.0.0 Safari/537.36",Macintosh,Chrome,131.0.0.0,OS X,10_15_7,https://yad8ktrsyq.cognition.run/,"en-US,en;q=0.9",628740722,applehorse2.png,l,,,TRUE,horse,boff,L,practice,,,,,,,,,,
,null,feedback,html-keyboard-response,146,254421,0.0-3.0-4.1,5,3,11/13/24 20:51,ac67f51de2561160cb0455ab06dcb307,139.140.210.120,"Mozilla/5.0 (Macintosh; Intel Mac OS X 10_15_7) AppleWebKit/537.36 (KHTML, like Gecko) Chrome/131.0.0.0 Safari/537.36",Macintosh,Chrome,131.0.0.0,OS X,10_15_7,https://yad8ktrsyq.cognition.run/,"en-US,en;q=0.9",628740722,<b>Too slow!</b> <br><br> Please try to respond faster.,null,,,,,,,,,,,,,,,,,
,null,fixation,html-keyboard-response,147,254727,0.0-3.0-0.2,5,3,11/13/24 20:51,ac67f51de2561160cb0455ab06dcb307,139.140.210.120,"Mozilla/5.0 (Macintosh; Intel Mac OS X 10_15_7) AppleWebKit/537.36 (KHTML, like Gecko) Chrome/131.0.0.0 Safari/537.36",Macintosh,Chrome,131.0.0.0,OS X,10_15_7,https://yad8ktrsyq.cognition.run/,"en-US,en;q=0.9",628740722,+,null,,,,,,,,,,,,,,,,,
,null,image,image-keyboard-response,148,255232,0.0-3.0-1.2,5,3,11/13/24 20:51,ac67f51de2561160cb0455ab06dcb307,139.140.210.120,"Mozilla/5.0 (Macintosh; Intel Mac OS X 10_15_7) AppleWebKit/537.36 (KHTML, like Gecko) Chrome/131.0.0.0 Safari/537.36",Macintosh,Chrome,131.0.0.0,OS X,10_15_7,https://yad8ktrsyq.cognition.run/,"en-US,en;q=0.9",628740722,applehorse2.png,null,,,,,,,,,,,,,,,,,
,null,prime,image-keyboard-response,149,255738,0.0-3.0-2.2,5,3,11/13/24 20:51,ac67f51de2561160cb0455ab06dcb307,139.140.210.120,"Mozilla/5.0 (Macintosh; Intel Mac OS X 10_15_7) AppleWebKit/537.36 (KHTML, like Gecko) Chrome/131.0.0.0 Safari/537.36",Macintosh,Chrome,131.0.0.0,OS X,10_15_7,https://yad8ktrsyq.cognition.run/,"en-US,en;q=0.9",628740722,applehorse2.png,null,,,,,,,,,,,,,,,,,
,791,target,image-keyboard-response,150,256533,0.0-3.0-3.2,5,3,11/13/24 20:51,ac67f51de2561160cb0455ab06dcb307,139.140.210.120,"Mozilla/5.0 (Macintosh; Intel Mac OS X 10_15_7) AppleWebKit/537.36 (KHTML, like Gecko) Chrome/131.0.0.0 Safari/537.36",Macintosh,Chrome,131.0.0.0,OS X,10_15_7,https://yad8ktrsyq.cognition.run/,"en-US,en;q=0.9",628740722,applehorse2.png,l,,,TRUE,horse,geck,L,practice,,,,,,,,,,
,null,feedback,html-keyboard-response,151,257539,0.0-3.0-4.2,5,3,11/13/24 20:51,ac67f51de2561160cb0455ab06dcb307,139.140.210.120,"Mozilla/5.0 (Macintosh; Intel Mac OS X 10_15_7) AppleWebKit/537.36 (KHTML, like Gecko) Chrome/131.0.0.0 Safari/537.36",Macintosh,Chrome,131.0.0.0,OS X,10_15_7,https://yad8ktrsyq.cognition.run/,"en-US,en;q=0.9",628740722,<b>Correct!</b>,null,,,,,,,,,,,,,,,,,
,null,fixation,html-keyboard-response,152,257844,0.0-3.0-0.3,5,3,11/13/24 20:51,ac67f51de2561160cb0455ab06dcb307,139.140.210.120,"Mozilla/5.0 (Macintosh; Intel Mac OS X 10_15_7) AppleWebKit/537.36 (KHTML, like Gecko) Chrome/131.0.0.0 Safari/537.36",Macintosh,Chrome,131.0.0.0,OS X,10_15_7,https://yad8ktrsyq.cognition.run/,"en-US,en;q=0.9",628740722,+,null,,,,,,,,,,,,,,,,,
,null,image,image-keyboard-response,153,258351,0.0-3.0-1.3,5,3,11/13/24 20:51,ac67f51de2561160cb0455ab06dcb307,139.140.210.120,"Mozilla/5.0 (Macintosh; Intel Mac OS X 10_15_7) AppleWebKit/537.36 (KHTML, like Gecko) Chrome/131.0.0.0 Safari/537.36",Macintosh,Chrome,131.0.0.0,OS X,10_15_7,https://yad8ktrsyq.cognition.run/,"en-US,en;q=0.9",628740722,applehorse2.png,null,,,,,,,,,,,,,,,,,
,null,prime,image-keyboard-response,154,258859,0.0-3.0-2.3,5,3,11/13/24 20:51,ac67f51de2561160cb0455ab06dcb307,139.140.210.120,"Mozilla/5.0 (Macintosh; Intel Mac OS X 10_15_7) AppleWebKit/537.36 (KHTML, like Gecko) Chrome/131.0.0.0 Safari/537.36",Macintosh,Chrome,131.0.0.0,OS X,10_15_7,https://yad8ktrsyq.cognition.run/,"en-US,en;q=0.9",628740722,applehorse2.png,null,,,,,,,,,,,,,,,,,
,673,target,image-keyboard-response,155,259537,0.0-3.0-3.3,5,3,11/13/24 20:51,ac67f51de2561160cb0455ab06dcb307,139.140.210.120,"Mozilla/5.0 (Macintosh; Intel Mac OS X 10_15_7) AppleWebKit/537.36 (KHTML, like Gecko) Chrome/131.0.0.0 Safari/537.36",Macintosh,Chrome,131.0.0.0,OS X,10_15_7,https://yad8ktrsyq.cognition.run/,"en-US,en;q=0.9",628740722,applehorse2.png,l,,,TRUE,horse,mipp,L,practice,,,,,,,,,,
,null,feedback,html-keyboard-response,156,260541,0.0-3.0-4.3,5,3,11/13/24 20:51,ac67f51de2561160cb0455ab06dcb307,139.140.210.120,"Mozilla/5.0 (Macintosh; Intel Mac OS X 10_15_7) AppleWebKit/537.36 (KHTML, like Gecko) Chrome/131.0.0.0 Safari/537.36",Macintosh,Chrome,131.0.0.0,OS X,10_15_7,https://yad8ktrsyq.cognition.run/,"en-US,en;q=0.9",628740722,<b>Correct!</b>,null,,,,,,,,,,,,,,,,,
,null,fixation,html-keyboard-response,157,260847,0.0-3.0-0.4,5,3,11/13/24 20:51,ac67f51de2561160cb0455ab06dcb307,139.140.210.120,"Mozilla/5.0 (Macintosh; Intel Mac OS X 10_15_7) AppleWebKit/537.36 (KHTML, like Gecko) Chrome/131.0.0.0 Safari/537.36",Macintosh,Chrome,131.0.0.0,OS X,10_15_7,https://yad8ktrsyq.cognition.run/,"en-US,en;q=0.9",628740722,+,null,,,,,,,,,,,,,,,,,
,null,image,image-keyboard-response,158,261354,0.0-3.0-1.4,5,3,11/13/24 20:51,ac67f51de2561160cb0455ab06dcb307,139.140.210.120,"Mozilla/5.0 (Macintosh; Intel Mac OS X 10_15_7) AppleWebKit/537.36 (KHTML, like Gecko) Chrome/131.0.0.0 Safari/537.36",Macintosh,Chrome,131.0.0.0,OS X,10_15_7,https://yad8ktrsyq.cognition.run/,"en-US,en;q=0.9",628740722,applehorse2.png,null,,,,,,,,,,,,,,,,,
,null,prime,image-keyboard-response,159,261862,0.0-3.0-2.4,5,3,11/13/24 20:51,ac67f51de2561160cb0455ab06dcb307,139.140.210.120,"Mozilla/5.0 (Macintosh; Intel Mac OS X 10_15_7) AppleWebKit/537.36 (KHTML, like Gecko) Chrome/131.0.0.0 Safari/537.36",Macintosh,Chrome,131.0.0.0,OS X,10_15_7,https://yad8ktrsyq.cognition.run/,"en-US,en;q=0.9",628740722,applehorse2.png,null,,,,,,,,,,,,,,,,,
,736,target,image-keyboard-response,160,262604,0.0-3.0-3.4,5,3,11/13/24 20:51,ac67f51de2561160cb0455ab06dcb307,139.140.210.120,"Mozilla/5.0 (Macintosh; Intel Mac OS X 10_15_7) AppleWebKit/537.36 (KHTML, like Gecko) Chrome/131.0.0.0 Safari/537.36",Macintosh,Chrome,131.0.0.0,OS X,10_15_7,https://yad8ktrsyq.cognition.run/,"en-US,en;q=0.9",628740722,applehorse2.png,l,,,TRUE,horse,geck,L,practice,,,,,,,,,,
,null,feedback,html-keyboard-response,161,263610,0.0-3.0-4.4,5,3,11/13/24 20:51,ac67f51de2561160cb0455ab06dcb307,139.140.210.120,"Mozilla/5.0 (Macintosh; Intel Mac OS X 10_15_7) AppleWebKit/537.36 (KHTML, like Gecko) Chrome/131.0.0.0 Safari/537.36",Macintosh,Chrome,131.0.0.0,OS X,10_15_7,https://yad8ktrsyq.cognition.run/,"en-US,en;q=0.9",628740722,<b>Correct!</b>,null,,,,,,,,,,,,,,,,,
,null,fixation,html-keyboard-response,162,263916,0.0-3.0-0.5,5,3,11/13/24 20:51,ac67f51de2561160cb0455ab06dcb307,139.140.210.120,"Mozilla/5.0 (Macintosh; Intel Mac OS X 10_15_7) AppleWebKit/537.36 (KHTML, like Gecko) Chrome/131.0.0.0 Safari/537.36",Macintosh,Chrome,131.0.0.0,OS X,10_15_7,https://yad8ktrsyq.cognition.run/,"en-US,en;q=0.9",628740722,+,null,,,,,,,,,,,,,,,,,
,null,image,image-keyboard-response,163,264424,0.0-3.0-1.5,5,3,11/13/24 20:51,ac67f51de2561160cb0455ab06dcb307,139.140.210.120,"Mozilla/5.0 (Macintosh; Intel Mac OS X 10_15_7) AppleWebKit/537.36 (KHTML, like Gecko) Chrome/131.0.0.0 Safari/537.36",Macintosh,Chrome,131.0.0.0,OS X,10_15_7,https://yad8ktrsyq.cognition.run/,"en-US,en;q=0.9",628740722,horseapple2.png,null,,,,,,,,,,,,,,,,,
,null,prime,image-keyboard-response,164,264930,0.0-3.0-2.5,5,3,11/13/24 20:51,ac67f51de2561160cb0455ab06dcb307,139.140.210.120,"Mozilla/5.0 (Macintosh; Intel Mac OS X 10_15_7) AppleWebKit/537.36 (KHTML, like Gecko) Chrome/131.0.0.0 Safari/537.36",Macintosh,Chrome,131.0.0.0,OS X,10_15_7,https://yad8ktrsyq.cognition.run/,"en-US,en;q=0.9",628740722,horseapple2.png,null,,,,,,,,,,,,,,,,,
,553,target,image-keyboard-response,165,265488,0.0-3.0-3.5,5,3,11/13/24 20:51,ac67f51de2561160cb0455ab06dcb307,139.140.210.120,"Mozilla/5.0 (Macintosh; Intel Mac OS X 10_15_7) AppleWebKit/537.36 (KHTML, like Gecko) Chrome/131.0.0.0 Safari/537.36",Macintosh,Chrome,131.0.0.0,OS X,10_15_7,https://yad8ktrsyq.cognition.run/,"en-US,en;q=0.9",628740722,horseapple2.png,l,,,TRUE,apple,mipp,L,practice,,,,,,,,,,
,null,feedback,html-keyboard-response,166,266493,0.0-3.0-4.5,5,3,11/13/24 20:51,ac67f51de2561160cb0455ab06dcb307,139.140.210.120,"Mozilla/5.0 (Macintosh; Intel Mac OS X 10_15_7) AppleWebKit/537.36 (KHTML, like Gecko) Chrome/131.0.0.0 Safari/537.36",Macintosh,Chrome,131.0.0.0,OS X,10_15_7,https://yad8ktrsyq.cognition.run/,"en-US,en;q=0.9",628740722,<b>Correct!</b>,null,,,,,,,,,,,,,,,,,
,null,fixation,html-keyboard-response,167,266800,0.0-3.0-0.6,5,3,11/13/24 20:51,ac67f51de2561160cb0455ab06dcb307,139.140.210.120,"Mozilla/5.0 (Macintosh; Intel Mac OS X 10_15_7) AppleWebKit/537.36 (KHTML, like Gecko) Chrome/131.0.0.0 Safari/537.36",Macintosh,Chrome,131.0.0.0,OS X,10_15_7,https://yad8ktrsyq.cognition.run/,"en-US,en;q=0.9",628740722,+,null,,,,,,,,,,,,,,,,,
,null,image,image-keyboard-response,168,267306,0.0-3.0-1.6,5,3,11/13/24 20:51,ac67f51de2561160cb0455ab06dcb307,139.140.210.120,"Mozilla/5.0 (Macintosh; Intel Mac OS X 10_15_7) AppleWebKit/537.36 (KHTML, like Gecko) Chrome/131.0.0.0 Safari/537.36",Macintosh,Chrome,131.0.0.0,OS X,10_15_7,https://yad8ktrsyq.cognition.run/,"en-US,en;q=0.9",628740722,applehorse2.png,null,,,,,,,,,,,,,,,,,
,null,prime,image-keyboard-response,169,267813,0.0-3.0-2.6,5,3,11/13/24 20:51,ac67f51de2561160cb0455ab06dcb307,139.140.210.120,"Mozilla/5.0 (Macintosh; Intel Mac OS X 10_15_7) AppleWebKit/537.36 (KHTML, like Gecko) Chrome/131.0.0.0 Safari/537.36",Macintosh,Chrome,131.0.0.0,OS X,10_15_7,https://yad8ktrsyq.cognition.run/,"en-US,en;q=0.9",628740722,applehorse2.png,null,,,,,,,,,,,,,,,,,
,583,target,image-keyboard-response,170,268401,0.0-3.0-3.6,5,3,11/13/24 20:51,ac67f51de2561160cb0455ab06dcb307,139.140.210.120,"Mozilla/5.0 (Macintosh; Intel Mac OS X 10_15_7) AppleWebKit/537.36 (KHTML, like Gecko) Chrome/131.0.0.0 Safari/537.36",Macintosh,Chrome,131.0.0.0,OS X,10_15_7,https://yad8ktrsyq.cognition.run/,"en-US,en;q=0.9",628740722,applehorse2.png,a,,,TRUE,apple,boff,A,practice,,,,,,,,,,
,null,feedback,html-keyboard-response,171,269407,0.0-3.0-4.6,5,3,11/13/24 20:51,ac67f51de2561160cb0455ab06dcb307,139.140.210.120,"Mozilla/5.0 (Macintosh; Intel Mac OS X 10_15_7) AppleWebKit/537.36 (KHTML, like Gecko) Chrome/131.0.0.0 Safari/537.36",Macintosh,Chrome,131.0.0.0,OS X,10_15_7,https://yad8ktrsyq.cognition.run/,"en-US,en;q=0.9",628740722,<b>Correct!</b>,null,,,,,,,,,,,,,,,,,
,null,fixation,html-keyboard-response,172,269718,0.0-3.0-0.7,5,3,11/13/24 20:51,ac67f51de2561160cb0455ab06dcb307,139.140.210.120,"Mozilla/5.0 (Macintosh; Intel Mac OS X 10_15_7) AppleWebKit/537.36 (KHTML, like Gecko) Chrome/131.0.0.0 Safari/537.36",Macintosh,Chrome,131.0.0.0,OS X,10_15_7,https://yad8ktrsyq.cognition.run/,"en-US,en;q=0.9",628740722,+,null,,,,,,,,,,,,,,,,,
,null,image,image-keyboard-response,173,270220,0.0-3.0-1.7,5,3,11/13/24 20:51,ac67f51de2561160cb0455ab06dcb307,139.140.210.120,"Mozilla/5.0 (Macintosh; Intel Mac OS X 10_15_7) AppleWebKit/537.36 (KHTML, like Gecko) Chrome/131.0.0.0 Safari/537.36",Macintosh,Chrome,131.0.0.0,OS X,10_15_7,https://yad8ktrsyq.cognition.run/,"en-US,en;q=0.9",628740722,applehorse2.png,null,,,,,,,,,,,,,,,,,
,null,prime,image-keyboard-response,174,270725,0.0-3.0-2.7,5,3,11/13/24 20:51,ac67f51de2561160cb0455ab06dcb307,139.140.210.120,"Mozilla/5.0 (Macintosh; Intel Mac OS X 10_15_7) AppleWebKit/537.36 (KHTML, like Gecko) Chrome/131.0.0.0 Safari/537.36",Macintosh,Chrome,131.0.0.0,OS X,10_15_7,https://yad8ktrsyq.cognition.run/,"en-US,en;q=0.9",628740722,applehorse2.png,null,,,,,,,,,,,,,,,,,
,727,target,image-keyboard-response,175,271455,0.0-3.0-3.7,5,3,11/13/24 20:51,ac67f51de2561160cb0455ab06dcb307,139.140.210.120,"Mozilla/5.0 (Macintosh; Intel Mac OS X 10_15_7) AppleWebKit/537.36 (KHTML, like Gecko) Chrome/131.0.0.0 Safari/537.36",Macintosh,Chrome,131.0.0.0,OS X,10_15_7,https://yad8ktrsyq.cognition.run/,"en-US,en;q=0.9",628740722,applehorse2.png,a,,,TRUE,apple,geck,A,practice,,,,,,,,,,
,null,feedback,html-keyboard-response,176,272462,0.0-3.0-4.7,5,3,11/13/24 20:51,ac67f51de2561160cb0455ab06dcb307,139.140.210.120,"Mozilla/5.0 (Macintosh; Intel Mac OS X 10_15_7) AppleWebKit/537.36 (KHTML, like Gecko) Chrome/131.0.0.0 Safari/537.36",Macintosh,Chrome,131.0.0.0,OS X,10_15_7,https://yad8ktrsyq.cognition.run/,"en-US,en;q=0.9",628740722,<b>Correct!</b>,null,,,,,,,,,,,,,,,,,
,null,fixation,html-keyboard-response,177,272769,0.0-3.0-0.8,5,3,11/13/24 20:51,ac67f51de2561160cb0455ab06dcb307,139.140.210.120,"Mozilla/5.0 (Macintosh; Intel Mac OS X 10_15_7) AppleWebKit/537.36 (KHTML, like Gecko) Chrome/131.0.0.0 Safari/537.36",Macintosh,Chrome,131.0.0.0,OS X,10_15_7,https://yad8ktrsyq.cognition.run/,"en-US,en;q=0.9",628740722,+,null,,,,,,,,,,,,,,,,,
,null,image,image-keyboard-response,178,273276,0.0-3.0-1.8,5,3,11/13/24 20:51,ac67f51de2561160cb0455ab06dcb307,139.140.210.120,"Mozilla/5.0 (Macintosh; Intel Mac OS X 10_15_7) AppleWebKit/537.36 (KHTML, like Gecko) Chrome/131.0.0.0 Safari/537.36",Macintosh,Chrome,131.0.0.0,OS X,10_15_7,https://yad8ktrsyq.cognition.run/,"en-US,en;q=0.9",628740722,applehorse2.png,null,,,,,,,,,,,,,,,,,
,null,prime,image-keyboard-response,179,273783,0.0-3.0-2.8,5,3,11/13/24 20:51,ac67f51de2561160cb0455ab06dcb307,139.140.210.120,"Mozilla/5.0 (Macintosh; Intel Mac OS X 10_15_7) AppleWebKit/537.36 (KHTML, like Gecko) Chrome/131.0.0.0 Safari/537.36",Macintosh,Chrome,131.0.0.0,OS X,10_15_7,https://yad8ktrsyq.cognition.run/,"en-US,en;q=0.9",628740722,applehorse2.png,null,,,,,,,,,,,,,,,,,
,816,target,image-keyboard-response,180,274605,0.0-3.0-3.8,5,3,11/13/24 20:51,ac67f51de2561160cb0455ab06dcb307,139.140.210.120,"Mozilla/5.0 (Macintosh; Intel Mac OS X 10_15_7) AppleWebKit/537.36 (KHTML, like Gecko) Chrome/131.0.0.0 Safari/537.36",Macintosh,Chrome,131.0.0.0,OS X,10_15_7,https://yad8ktrsyq.cognition.run/,"en-US,en;q=0.9",628740722,applehorse2.png,a,,,TRUE,apple,mipp,A,practice,,,,,,,,,,
,null,feedback,html-keyboard-response,181,275611,0.0-3.0-4.8,5,3,11/13/24 20:51,ac67f51de2561160cb0455ab06dcb307,139.140.210.120,"Mozilla/5.0 (Macintosh; Intel Mac OS X 10_15_7) AppleWebKit/537.36 (KHTML, like Gecko) Chrome/131.0.0.0 Safari/537.36",Macintosh,Chrome,131.0.0.0,OS X,10_15_7,https://yad8ktrsyq.cognition.run/,"en-US,en;q=0.9",628740722,<b>Too slow!</b> <br><br> Please try to respond faster.,null,,,,,,,,,,,,,,,,,
,null,fixation,html-keyboard-response,182,275918,0.0-4.0-0.0,5,3,11/13/24 20:51,ac67f51de2561160cb0455ab06dcb307,139.140.210.120,"Mozilla/5.0 (Macintosh; Intel Mac OS X 10_15_7) AppleWebKit/537.36 (KHTML, like Gecko) Chrome/131.0.0.0 Safari/537.36",Macintosh,Chrome,131.0.0.0,OS X,10_15_7,https://yad8ktrsyq.cognition.run/,"en-US,en;q=0.9",628740722,+,null,,,,,,,,,,,,,,,,,
,null,image,image-keyboard-response,183,276425,0.0-4.0-1.0,5,3,11/13/24 20:51,ac67f51de2561160cb0455ab06dcb307,139.140.210.120,"Mozilla/5.0 (Macintosh; Intel Mac OS X 10_15_7) AppleWebKit/537.36 (KHTML, like Gecko) Chrome/131.0.0.0 Safari/537.36",Macintosh,Chrome,131.0.0.0,OS X,10_15_7,https://yad8ktrsyq.cognition.run/,"en-US,en;q=0.9",628740722,horseapple2.png,null,,,,,,,,,,,,,,,,,
,null,prime,image-keyboard-response,184,276933,0.0-4.0-2.0,5,3,11/13/24 20:51,ac67f51de2561160cb0455ab06dcb307,139.140.210.120,"Mozilla/5.0 (Macintosh; Intel Mac OS X 10_15_7) AppleWebKit/537.36 (KHTML, like Gecko) Chrome/131.0.0.0 Safari/537.36",Macintosh,Chrome,131.0.0.0,OS X,10_15_7,https://yad8ktrsyq.cognition.run/,"en-US,en;q=0.9",628740722,horseapple2.png,null,,,,,,,,,,,,,,,,,
,671,target,image-keyboard-response,185,277610,0.0-4.0-3.0,5,3,11/13/24 20:51,ac67f51de2561160cb0455ab06dcb307,139.140.210.120,"Mozilla/5.0 (Macintosh; Intel Mac OS X 10_15_7) AppleWebKit/537.36 (KHTML, like Gecko) Chrome/131.0.0.0 Safari/537.36",Macintosh,Chrome,131.0.0.0,OS X,10_15_7,https://yad8ktrsyq.cognition.run/,"en-US,en;q=0.9",628740722,horseapple2.png,l,,,TRUE,apple,geck,L,1,,,,,,,,,,
,null,fixation,html-keyboard-response,186,277916,0.0-4.0-0.1,5,3,11/13/24 20:51,ac67f51de2561160cb0455ab06dcb307,139.140.210.120,"Mozilla/5.0 (Macintosh; Intel Mac OS X 10_15_7) AppleWebKit/537.36 (KHTML, like Gecko) Chrome/131.0.0.0 Safari/537.36",Macintosh,Chrome,131.0.0.0,OS X,10_15_7,https://yad8ktrsyq.cognition.run/,"en-US,en;q=0.9",628740722,+,null,,,,,,,,,,,,,,,,,
,null,image,image-keyboard-response,187,278423,0.0-4.0-1.1,5,3,11/13/24 20:51,ac67f51de2561160cb0455ab06dcb307,139.140.210.120,"Mozilla/5.0 (Macintosh; Intel Mac OS X 10_15_7) AppleWebKit/537.36 (KHTML, like Gecko) Chrome/131.0.0.0 Safari/537.36",Macintosh,Chrome,131.0.0.0,OS X,10_15_7,https://yad8ktrsyq.cognition.run/,"en-US,en;q=0.9",628740722,horseapple2.png,null,,,,,,,,,,,,,,,,,
,null,prime,image-keyboard-response,188,278929,0.0-4.0-2.1,5,3,11/13/24 20:51,ac67f51de2561160cb0455ab06dcb307,139.140.210.120,"Mozilla/5.0 (Macintosh; Intel Mac OS X 10_15_7) AppleWebKit/537.36 (KHTML, like Gecko) Chrome/131.0.0.0 Safari/537.36",Macintosh,Chrome,131.0.0.0,OS X,10_15_7,https://yad8ktrsyq.cognition.run/,"en-US,en;q=0.9",628740722,horseapple2.png,null,,,,,,,,,,,,,,,,,
,618,target,image-keyboard-response,189,279553,0.0-4.0-3.1,5,3,11/13/24 20:51,ac67f51de2561160cb0455ab06dcb307,139.140.210.120,"Mozilla/5.0 (Macintosh; Intel Mac OS X 10_15_7) AppleWebKit/537.36 (KHTML, like Gecko) Chrome/131.0.0.0 Safari/537.36",Macintosh,Chrome,131.0.0.0,OS X,10_15_7,https://yad8ktrsyq.cognition.run/,"en-US,en;q=0.9",628740722,horseapple2.png,l,,,TRUE,apple,foobly,L,1,,,,,,,,,,
,null,fixation,html-keyboard-response,190,279859,0.0-4.0-0.2,5,3,11/13/24 20:51,ac67f51de2561160cb0455ab06dcb307,139.140.210.120,"Mozilla/5.0 (Macintosh; Intel Mac OS X 10_15_7) AppleWebKit/537.36 (KHTML, like Gecko) Chrome/131.0.0.0 Safari/537.36",Macintosh,Chrome,131.0.0.0,OS X,10_15_7,https://yad8ktrsyq.cognition.run/,"en-US,en;q=0.9",628740722,+,null,,,,,,,,,,,,,,,,,
,null,image,image-keyboard-response,191,280365,0.0-4.0-1.2,5,3,11/13/24 20:51,ac67f51de2561160cb0455ab06dcb307,139.140.210.120,"Mozilla/5.0 (Macintosh; Intel Mac OS X 10_15_7) AppleWebKit/537.36 (KHTML, like Gecko) Chrome/131.0.0.0 Safari/537.36",Macintosh,Chrome,131.0.0.0,OS X,10_15_7,https://yad8ktrsyq.cognition.run/,"en-US,en;q=0.9",628740722,horseapple2.png,null,,,,,,,,,,,,,,,,,
,null,prime,image-keyboard-response,192,280873,0.0-4.0-2.2,5,3,11/13/24 20:51,ac67f51de2561160cb0455ab06dcb307,139.140.210.120,"Mozilla/5.0 (Macintosh; Intel Mac OS X 10_15_7) AppleWebKit/537.36 (KHTML, like Gecko) Chrome/131.0.0.0 Safari/537.36",Macintosh,Chrome,131.0.0.0,OS X,10_15_7,https://yad8ktrsyq.cognition.run/,"en-US,en;q=0.9",628740722,horseapple2.png,null,,,,,,,,,,,,,,,,,
,485,target,image-keyboard-response,193,281364,0.0-4.0-3.2,5,3,11/13/24 20:51,ac67f51de2561160cb0455ab06dcb307,139.140.210.120,"Mozilla/5.0 (Macintosh; Intel Mac OS X 10_15_7) AppleWebKit/537.36 (KHTML, like Gecko) Chrome/131.0.0.0 Safari/537.36",Macintosh,Chrome,131.0.0.0,OS X,10_15_7,https://yad8ktrsyq.cognition.run/,"en-US,en;q=0.9",628740722,horseapple2.png,l,,,TRUE,apple,geck,L,1,,,,,,,,,,
,null,fixation,html-keyboard-response,194,281670,0.0-4.0-0.3,5,3,11/13/24 20:51,ac67f51de2561160cb0455ab06dcb307,139.140.210.120,"Mozilla/5.0 (Macintosh; Intel Mac OS X 10_15_7) AppleWebKit/537.36 (KHTML, like Gecko) Chrome/131.0.0.0 Safari/537.36",Macintosh,Chrome,131.0.0.0,OS X,10_15_7,https://yad8ktrsyq.cognition.run/,"en-US,en;q=0.9",628740722,+,null,,,,,,,,,,,,,,,,,
,null,image,image-keyboard-response,195,282177,0.0-4.0-1.3,5,3,11/13/24 20:51,ac67f51de2561160cb0455ab06dcb307,139.140.210.120,"Mozilla/5.0 (Macintosh; Intel Mac OS X 10_15_7) AppleWebKit/537.36 (KHTML, like Gecko) Chrome/131.0.0.0 Safari/537.36",Macintosh,Chrome,131.0.0.0,OS X,10_15_7,https://yad8ktrsyq.cognition.run/,"en-US,en;q=0.9",628740722,applehorse2.png,null,,,,,,,,,,,,,,,,,
,null,prime,image-keyboard-response,196,282684,0.0-4.0-2.3,5,3,11/13/24 20:51,ac67f51de2561160cb0455ab06dcb307,139.140.210.120,"Mozilla/5.0 (Macintosh; Intel Mac OS X 10_15_7) AppleWebKit/537.36 (KHTML, like Gecko) Chrome/131.0.0.0 Safari/537.36",Macintosh,Chrome,131.0.0.0,OS X,10_15_7,https://yad8ktrsyq.cognition.run/,"en-US,en;q=0.9",628740722,applehorse2.png,null,,,,,,,,,,,,,,,,,
,631,target,image-keyboard-response,197,283321,0.0-4.0-3.3,5,3,11/13/24 20:51,ac67f51de2561160cb0455ab06dcb307,139.140.210.120,"Mozilla/5.0 (Macintosh; Intel Mac OS X 10_15_7) AppleWebKit/537.36 (KHTML, like Gecko) Chrome/131.0.0.0 Safari/537.36",Macintosh,Chrome,131.0.0.0,OS X,10_15_7,https://yad8ktrsyq.cognition.run/,"en-US,en;q=0.9",628740722,applehorse2.png,l,,,TRUE,horse,boff,L,1,,,,,,,,,,
,null,fixation,html-keyboard-response,198,283627,0.0-4.0-0.4,5,3,11/13/24 20:51,ac67f51de2561160cb0455ab06dcb307,139.140.210.120,"Mozilla/5.0 (Macintosh; Intel Mac OS X 10_15_7) AppleWebKit/537.36 (KHTML, like Gecko) Chrome/131.0.0.0 Safari/537.36",Macintosh,Chrome,131.0.0.0,OS X,10_15_7,https://yad8ktrsyq.cognition.run/,"en-US,en;q=0.9",628740722,+,null,,,,,,,,,,,,,,,,,
,null,image,image-keyboard-response,199,284134,0.0-4.0-1.4,5,3,11/13/24 20:51,ac67f51de2561160cb0455ab06dcb307,139.140.210.120,"Mozilla/5.0 (Macintosh; Intel Mac OS X 10_15_7) AppleWebKit/537.36 (KHTML, like Gecko) Chrome/131.0.0.0 Safari/537.36",Macintosh,Chrome,131.0.0.0,OS X,10_15_7,https://yad8ktrsyq.cognition.run/,"en-US,en;q=0.9",628740722,horseapple2.png,null,,,,,,,,,,,,,,,,,
,null,prime,image-keyboard-response,200,284641,0.0-4.0-2.4,5,3,11/13/24 20:51,ac67f51de2561160cb0455ab06dcb307,139.140.210.120,"Mozilla/5.0 (Macintosh; Intel Mac OS X 10_15_7) AppleWebKit/537.36 (KHTML, like Gecko) Chrome/131.0.0.0 Safari/537.36",Macintosh,Chrome,131.0.0.0,OS X,10_15_7,https://yad8ktrsyq.cognition.run/,"en-US,en;q=0.9",628740722,horseapple2.png,null,,,,,,,,,,,,,,,,,
,602,target,image-keyboard-response,201,285250,0.0-4.0-3.4,5,3,11/13/24 20:51,ac67f51de2561160cb0455ab06dcb307,139.140.210.120,"Mozilla/5.0 (Macintosh; Intel Mac OS X 10_15_7) AppleWebKit/537.36 (KHTML, like Gecko) Chrome/131.0.0.0 Safari/537.36",Macintosh,Chrome,131.0.0.0,OS X,10_15_7,https://yad8ktrsyq.cognition.run/,"en-US,en;q=0.9",628740722,horseapple2.png,a,,,TRUE,horse,nuppical,A,1,,,,,,,,,,
,null,fixation,html-keyboard-response,202,285556,0.0-4.0-0.5,5,3,11/13/24 20:51,ac67f51de2561160cb0455ab06dcb307,139.140.210.120,"Mozilla/5.0 (Macintosh; Intel Mac OS X 10_15_7) AppleWebKit/537.36 (KHTML, like Gecko) Chrome/131.0.0.0 Safari/537.36",Macintosh,Chrome,131.0.0.0,OS X,10_15_7,https://yad8ktrsyq.cognition.run/,"en-US,en;q=0.9",628740722,+,null,,,,,,,,,,,,,,,,,
,null,image,image-keyboard-response,203,286065,0.0-4.0-1.5,5,3,11/13/24 20:51,ac67f51de2561160cb0455ab06dcb307,139.140.210.120,"Mozilla/5.0 (Macintosh; Intel Mac OS X 10_15_7) AppleWebKit/537.36 (KHTML, like Gecko) Chrome/131.0.0.0 Safari/537.36",Macintosh,Chrome,131.0.0.0,OS X,10_15_7,https://yad8ktrsyq.cognition.run/,"en-US,en;q=0.9",628740722,applehorse2.png,null,,,,,,,,,,,,,,,,,
,null,prime,image-keyboard-response,204,286570,0.0-4.0-2.5,5,3,11/13/24 20:51,ac67f51de2561160cb0455ab06dcb307,139.140.210.120,"Mozilla/5.0 (Macintosh; Intel Mac OS X 10_15_7) AppleWebKit/537.36 (KHTML, like Gecko) Chrome/131.0.0.0 Safari/537.36",Macintosh,Chrome,131.0.0.0,OS X,10_15_7,https://yad8ktrsyq.cognition.run/,"en-US,en;q=0.9",628740722,applehorse2.png,null,,,,,,,,,,,,,,,,,
,692,target,image-keyboard-response,205,287269,0.0-4.0-3.5,5,3,11/13/24 20:51,ac67f51de2561160cb0455ab06dcb307,139.140.210.120,"Mozilla/5.0 (Macintosh; Intel Mac OS X 10_15_7) AppleWebKit/537.36 (KHTML, like Gecko) Chrome/131.0.0.0 Safari/537.36",Macintosh,Chrome,131.0.0.0,OS X,10_15_7,https://yad8ktrsyq.cognition.run/,"en-US,en;q=0.9",628740722,applehorse2.png,l,,,TRUE,horse,foobly,L,1,,,,,,,,,,
,null,fixation,html-keyboard-response,206,287576,0.0-4.0-0.6,5,3,11/13/24 20:51,ac67f51de2561160cb0455ab06dcb307,139.140.210.120,"Mozilla/5.0 (Macintosh; Intel Mac OS X 10_15_7) AppleWebKit/537.36 (KHTML, like Gecko) Chrome/131.0.0.0 Safari/537.36",Macintosh,Chrome,131.0.0.0,OS X,10_15_7,https://yad8ktrsyq.cognition.run/,"en-US,en;q=0.9",628740722,+,null,,,,,,,,,,,,,,,,,
,null,image,image-keyboard-response,207,288082,0.0-4.0-1.6,5,3,11/13/24 20:51,ac67f51de2561160cb0455ab06dcb307,139.140.210.120,"Mozilla/5.0 (Macintosh; Intel Mac OS X 10_15_7) AppleWebKit/537.36 (KHTML, like Gecko) Chrome/131.0.0.0 Safari/537.36",Macintosh,Chrome,131.0.0.0,OS X,10_15_7,https://yad8ktrsyq.cognition.run/,"en-US,en;q=0.9",628740722,horseapple2.png,null,,,,,,,,,,,,,,,,,
,null,prime,image-keyboard-response,208,288589,0.0-4.0-2.6,5,3,11/13/24 20:51,ac67f51de2561160cb0455ab06dcb307,139.140.210.120,"Mozilla/5.0 (Macintosh; Intel Mac OS X 10_15_7) AppleWebKit/537.36 (KHTML, like Gecko) Chrome/131.0.0.0 Safari/537.36",Macintosh,Chrome,131.0.0.0,OS X,10_15_7,https://yad8ktrsyq.cognition.run/,"en-US,en;q=0.9",628740722,horseapple2.png,null,,,,,,,,,,,,,,,,,
,645,target,image-keyboard-response,209,289240,0.0-4.0-3.6,5,3,11/13/24 20:51,ac67f51de2561160cb0455ab06dcb307,139.140.210.120,"Mozilla/5.0 (Macintosh; Intel Mac OS X 10_15_7) AppleWebKit/537.36 (KHTML, like Gecko) Chrome/131.0.0.0 Safari/537.36",Macintosh,Chrome,131.0.0.0,OS X,10_15_7,https://yad8ktrsyq.cognition.run/,"en-US,en;q=0.9",628740722,horseapple2.png,a,,,TRUE,horse,boff,A,1,,,,,,,,,,
,null,fixation,html-keyboard-response,210,289546,0.0-4.0-0.7,5,3,11/13/24 20:51,ac67f51de2561160cb0455ab06dcb307,139.140.210.120,"Mozilla/5.0 (Macintosh; Intel Mac OS X 10_15_7) AppleWebKit/537.36 (KHTML, like Gecko) Chrome/131.0.0.0 Safari/537.36",Macintosh,Chrome,131.0.0.0,OS X,10_15_7,https://yad8ktrsyq.cognition.run/,"en-US,en;q=0.9",628740722,+,null,,,,,,,,,,,,,,,,,
,null,image,image-keyboard-response,211,290054,0.0-4.0-1.7,5,3,11/13/24 20:51,ac67f51de2561160cb0455ab06dcb307,139.140.210.120,"Mozilla/5.0 (Macintosh; Intel Mac OS X 10_15_7) AppleWebKit/537.36 (KHTML, like Gecko) Chrome/131.0.0.0 Safari/537.36",Macintosh,Chrome,131.0.0.0,OS X,10_15_7,https://yad8ktrsyq.cognition.run/,"en-US,en;q=0.9",628740722,applehorse2.png,null,,,,,,,,,,,,,,,,,
,null,prime,image-keyboard-response,212,290562,0.0-4.0-2.7,5,3,11/13/24 20:51,ac67f51de2561160cb0455ab06dcb307,139.140.210.120,"Mozilla/5.0 (Macintosh; Intel Mac OS X 10_15_7) AppleWebKit/537.36 (KHTML, like Gecko) Chrome/131.0.0.0 Safari/537.36",Macintosh,Chrome,131.0.0.0,OS X,10_15_7,https://yad8ktrsyq.cognition.run/,"en-US,en;q=0.9",628740722,applehorse2.png,null,,,,,,,,,,,,,,,,,
,536,target,image-keyboard-response,213,291106,0.0-4.0-3.7,5,3,11/13/24 20:51,ac67f51de2561160cb0455ab06dcb307,139.140.210.120,"Mozilla/5.0 (Macintosh; Intel Mac OS X 10_15_7) AppleWebKit/537.36 (KHTML, like Gecko) Chrome/131.0.0.0 Safari/537.36",Macintosh,Chrome,131.0.0.0,OS X,10_15_7,https://yad8ktrsyq.cognition.run/,"en-US,en;q=0.9",628740722,applehorse2.png,a,,,TRUE,apple,dodish,A,1,,,,,,,,,,
,null,fixation,html-keyboard-response,214,291412,0.0-4.0-0.8,5,3,11/13/24 20:51,ac67f51de2561160cb0455ab06dcb307,139.140.210.120,"Mozilla/5.0 (Macintosh; Intel Mac OS X 10_15_7) AppleWebKit/537.36 (KHTML, like Gecko) Chrome/131.0.0.0 Safari/537.36",Macintosh,Chrome,131.0.0.0,OS X,10_15_7,https://yad8ktrsyq.cognition.run/,"en-US,en;q=0.9",628740722,+,null,,,,,,,,,,,,,,,,,
,null,image,image-keyboard-response,215,291918,0.0-4.0-1.8,5,3,11/13/24 20:51,ac67f51de2561160cb0455ab06dcb307,139.140.210.120,"Mozilla/5.0 (Macintosh; Intel Mac OS X 10_15_7) AppleWebKit/537.36 (KHTML, like Gecko) Chrome/131.0.0.0 Safari/537.36",Macintosh,Chrome,131.0.0.0,OS X,10_15_7,https://yad8ktrsyq.cognition.run/,"en-US,en;q=0.9",628740722,horseapple2.png,null,,,,,,,,,,,,,,,,,
,null,prime,image-keyboard-response,216,292426,0.0-4.0-2.8,5,3,11/13/24 20:51,ac67f51de2561160cb0455ab06dcb307,139.140.210.120,"Mozilla/5.0 (Macintosh; Intel Mac OS X 10_15_7) AppleWebKit/537.36 (KHTML, like Gecko) Chrome/131.0.0.0 Safari/537.36",Macintosh,Chrome,131.0.0.0,OS X,10_15_7,https://yad8ktrsyq.cognition.run/,"en-US,en;q=0.9",628740722,horseapple2.png,null,,,,,,,,,,,,,,,,,
,629,target,image-keyboard-response,217,293060,0.0-4.0-3.8,5,3,11/13/24 20:51,ac67f51de2561160cb0455ab06dcb307,139.140.210.120,"Mozilla/5.0 (Macintosh; Intel Mac OS X 10_15_7) AppleWebKit/537.36 (KHTML, like Gecko) Chrome/131.0.0.0 Safari/537.36",Macintosh,Chrome,131.0.0.0,OS X,10_15_7,https://yad8ktrsyq.cognition.run/,"en-US,en;q=0.9",628740722,horseapple2.png,a,,,TRUE,horse,geck,A,1,,,,,,,,,,
,null,fixation,html-keyboard-response,218,293366,0.0-4.0-0.9,5,3,11/13/24 20:51,ac67f51de2561160cb0455ab06dcb307,139.140.210.120,"Mozilla/5.0 (Macintosh; Intel Mac OS X 10_15_7) AppleWebKit/537.36 (KHTML, like Gecko) Chrome/131.0.0.0 Safari/537.36",Macintosh,Chrome,131.0.0.0,OS X,10_15_7,https://yad8ktrsyq.cognition.run/,"en-US,en;q=0.9",628740722,+,null,,,,,,,,,,,,,,,,,
,null,image,image-keyboard-response,219,293875,0.0-4.0-1.9,5,3,11/13/24 20:51,ac67f51de2561160cb0455ab06dcb307,139.140.210.120,"Mozilla/5.0 (Macintosh; Intel Mac OS X 10_15_7) AppleWebKit/537.36 (KHTML, like Gecko) Chrome/131.0.0.0 Safari/537.36",Macintosh,Chrome,131.0.0.0,OS X,10_15_7,https://yad8ktrsyq.cognition.run/,"en-US,en;q=0.9",628740722,applehorse2.png,null,,,,,,,,,,,,,,,,,
,null,prime,image-keyboard-response,220,294382,0.0-4.0-2.9,5,3,11/13/24 20:51,ac67f51de2561160cb0455ab06dcb307,139.140.210.120,"Mozilla/5.0 (Macintosh; Intel Mac OS X 10_15_7) AppleWebKit/537.36 (KHTML, like Gecko) Chrome/131.0.0.0 Safari/537.36",Macintosh,Chrome,131.0.0.0,OS X,10_15_7,https://yad8ktrsyq.cognition.run/,"en-US,en;q=0.9",628740722,applehorse2.png,null,,,,,,,,,,,,,,,,,
,729,target,image-keyboard-response,221,295118,0.0-4.0-3.9,5,3,11/13/24 20:51,ac67f51de2561160cb0455ab06dcb307,139.140.210.120,"Mozilla/5.0 (Macintosh; Intel Mac OS X 10_15_7) AppleWebKit/537.36 (KHTML, like Gecko) Chrome/131.0.0.0 Safari/537.36",Macintosh,Chrome,131.0.0.0,OS X,10_15_7,https://yad8ktrsyq.cognition.run/,"en-US,en;q=0.9",628740722,applehorse2.png,l,,,TRUE,horse,geck,L,1,,,,,,,,,,
,null,fixation,html-keyboard-response,222,295423,0.0-4.0-0.10,5,3,11/13/24 20:51,ac67f51de2561160cb0455ab06dcb307,139.140.210.120,"Mozilla/5.0 (Macintosh; Intel Mac OS X 10_15_7) AppleWebKit/537.36 (KHTML, like Gecko) Chrome/131.0.0.0 Safari/537.36",Macintosh,Chrome,131.0.0.0,OS X,10_15_7,https://yad8ktrsyq.cognition.run/,"en-US,en;q=0.9",628740722,+,null,,,,,,,,,,,,,,,,,
,null,image,image-keyboard-response,223,295932,0.0-4.0-1.10,5,3,11/13/24 20:51,ac67f51de2561160cb0455ab06dcb307,139.140.210.120,"Mozilla/5.0 (Macintosh; Intel Mac OS X 10_15_7) AppleWebKit/537.36 (KHTML, like Gecko) Chrome/131.0.0.0 Safari/537.36",Macintosh,Chrome,131.0.0.0,OS X,10_15_7,https://yad8ktrsyq.cognition.run/,"en-US,en;q=0.9",628740722,applehorse2.png,null,,,,,,,,,,,,,,,,,
,null,prime,image-keyboard-response,224,296441,0.0-4.0-2.10,5,3,11/13/24 20:51,ac67f51de2561160cb0455ab06dcb307,139.140.210.120,"Mozilla/5.0 (Macintosh; Intel Mac OS X 10_15_7) AppleWebKit/537.36 (KHTML, like Gecko) Chrome/131.0.0.0 Safari/537.36",Macintosh,Chrome,131.0.0.0,OS X,10_15_7,https://yad8ktrsyq.cognition.run/,"en-US,en;q=0.9",628740722,applehorse2.png,null,,,,,,,,,,,,,,,,,
,638,target,image-keyboard-response,225,297086,0.0-4.0-3.10,5,3,11/13/24 20:51,ac67f51de2561160cb0455ab06dcb307,139.140.210.120,"Mozilla/5.0 (Macintosh; Intel Mac OS X 10_15_7) AppleWebKit/537.36 (KHTML, like Gecko) Chrome/131.0.0.0 Safari/537.36",Macintosh,Chrome,131.0.0.0,OS X,10_15_7,https://yad8ktrsyq.cognition.run/,"en-US,en;q=0.9",628740722,applehorse2.png,a,,,TRUE,apple,dodish,A,1,,,,,,,,,,
,null,fixation,html-keyboard-response,226,297394,0.0-4.0-0.11,5,3,11/13/24 20:51,ac67f51de2561160cb0455ab06dcb307,139.140.210.120,"Mozilla/5.0 (Macintosh; Intel Mac OS X 10_15_7) AppleWebKit/537.36 (KHTML, like Gecko) Chrome/131.0.0.0 Safari/537.36",Macintosh,Chrome,131.0.0.0,OS X,10_15_7,https://yad8ktrsyq.cognition.run/,"en-US,en;q=0.9",628740722,+,null,,,,,,,,,,,,,,,,,
,null,image,image-keyboard-response,227,297901,0.0-4.0-1.11,5,3,11/13/24 20:51,ac67f51de2561160cb0455ab06dcb307,139.140.210.120,"Mozilla/5.0 (Macintosh; Intel Mac OS X 10_15_7) AppleWebKit/537.36 (KHTML, like Gecko) Chrome/131.0.0.0 Safari/537.36",Macintosh,Chrome,131.0.0.0,OS X,10_15_7,https://yad8ktrsyq.cognition.run/,"en-US,en;q=0.9",628740722,horseapple2.png,null,,,,,,,,,,,,,,,,,
,null,prime,image-keyboard-response,228,298408,0.0-4.0-2.11,5,3,11/13/24 20:51,ac67f51de2561160cb0455ab06dcb307,139.140.210.120,"Mozilla/5.0 (Macintosh; Intel Mac OS X 10_15_7) AppleWebKit/537.36 (KHTML, like Gecko) Chrome/131.0.0.0 Safari/537.36",Macintosh,Chrome,131.0.0.0,OS X,10_15_7,https://yad8ktrsyq.cognition.run/,"en-US,en;q=0.9",628740722,horseapple2.png,null,,,,,,,,,,,,,,,,,
,861,target,image-keyboard-response,229,299275,0.0-4.0-3.11,5,3,11/13/24 20:51,ac67f51de2561160cb0455ab06dcb307,139.140.210.120,"Mozilla/5.0 (Macintosh; Intel Mac OS X 10_15_7) AppleWebKit/537.36 (KHTML, like Gecko) Chrome/131.0.0.0 Safari/537.36",Macintosh,Chrome,131.0.0.0,OS X,10_15_7,https://yad8ktrsyq.cognition.run/,"en-US,en;q=0.9",628740722,horseapple2.png,l,,,TRUE,apple,nuppical,L,1,,,,,,,,,,
,null,feedback,html-keyboard-response,230,300281,0.0-4.0-4.11-0.11,5,3,11/13/24 20:51,ac67f51de2561160cb0455ab06dcb307,139.140.210.120,"Mozilla/5.0 (Macintosh; Intel Mac OS X 10_15_7) AppleWebKit/537.36 (KHTML, like Gecko) Chrome/131.0.0.0 Safari/537.36",Macintosh,Chrome,131.0.0.0,OS X,10_15_7,https://yad8ktrsyq.cognition.run/,"en-US,en;q=0.9",628740722,<br>Too slow! <br><br> Please try to respond faster.,null,,,,,,,,,,,,,,,,,
,null,fixation,html-keyboard-response,231,300588,0.0-4.0-0.12,5,3,11/13/24 20:51,ac67f51de2561160cb0455ab06dcb307,139.140.210.120,"Mozilla/5.0 (Macintosh; Intel Mac OS X 10_15_7) AppleWebKit/537.36 (KHTML, like Gecko) Chrome/131.0.0.0 Safari/537.36",Macintosh,Chrome,131.0.0.0,OS X,10_15_7,https://yad8ktrsyq.cognition.run/,"en-US,en;q=0.9",628740722,+,null,,,,,,,,,,,,,,,,,
,null,image,image-keyboard-response,232,301097,0.0-4.0-1.12,5,3,11/13/24 20:51,ac67f51de2561160cb0455ab06dcb307,139.140.210.120,"Mozilla/5.0 (Macintosh; Intel Mac OS X 10_15_7) AppleWebKit/537.36 (KHTML, like Gecko) Chrome/131.0.0.0 Safari/537.36",Macintosh,Chrome,131.0.0.0,OS X,10_15_7,https://yad8ktrsyq.cognition.run/,"en-US,en;q=0.9",628740722,horseapple2.png,null,,,,,,,,,,,,,,,,,
,null,prime,image-keyboard-response,233,301605,0.0-4.0-2.12,5,3,11/13/24 20:51,ac67f51de2561160cb0455ab06dcb307,139.140.210.120,"Mozilla/5.0 (Macintosh; Intel Mac OS X 10_15_7) AppleWebKit/537.36 (KHTML, like Gecko) Chrome/131.0.0.0 Safari/537.36",Macintosh,Chrome,131.0.0.0,OS X,10_15_7,https://yad8ktrsyq.cognition.run/,"en-US,en;q=0.9",628740722,horseapple2.png,null,,,,,,,,,,,,,,,,,
,650,target,image-keyboard-response,234,302261,0.0-4.0-3.12,5,3,11/13/24 20:51,ac67f51de2561160cb0455ab06dcb307,139.140.210.120,"Mozilla/5.0 (Macintosh; Intel Mac OS X 10_15_7) AppleWebKit/537.36 (KHTML, like Gecko) Chrome/131.0.0.0 Safari/537.36",Macintosh,Chrome,131.0.0.0,OS X,10_15_7,https://yad8ktrsyq.cognition.run/,"en-US,en;q=0.9",628740722,horseapple2.png,a,,,TRUE,horse,geck,A,1,,,,,,,,,,
,null,fixation,html-keyboard-response,235,302568,0.0-4.0-0.13,5,3,11/13/24 20:51,ac67f51de2561160cb0455ab06dcb307,139.140.210.120,"Mozilla/5.0 (Macintosh; Intel Mac OS X 10_15_7) AppleWebKit/537.36 (KHTML, like Gecko) Chrome/131.0.0.0 Safari/537.36",Macintosh,Chrome,131.0.0.0,OS X,10_15_7,https://yad8ktrsyq.cognition.run/,"en-US,en;q=0.9",628740722,+,null,,,,,,,,,,,,,,,,,
,null,image,image-keyboard-response,236,303075,0.0-4.0-1.13,5,3,11/13/24 20:51,ac67f51de2561160cb0455ab06dcb307,139.140.210.120,"Mozilla/5.0 (Macintosh; Intel Mac OS X 10_15_7) AppleWebKit/537.36 (KHTML, like Gecko) Chrome/131.0.0.0 Safari/537.36",Macintosh,Chrome,131.0.0.0,OS X,10_15_7,https://yad8ktrsyq.cognition.run/,"en-US,en;q=0.9",628740722,applehorse2.png,null,,,,,,,,,,,,,,,,,
,null,prime,image-keyboard-response,237,303583,0.0-4.0-2.13,5,3,11/13/24 20:51,ac67f51de2561160cb0455ab06dcb307,139.140.210.120,"Mozilla/5.0 (Macintosh; Intel Mac OS X 10_15_7) AppleWebKit/537.36 (KHTML, like Gecko) Chrome/131.0.0.0 Safari/537.36",Macintosh,Chrome,131.0.0.0,OS X,10_15_7,https://yad8ktrsyq.cognition.run/,"en-US,en;q=0.9",628740722,applehorse2.png,null,,,,,,,,,,,,,,,,,
,611,target,image-keyboard-response,238,304201,0.0-4.0-3.13,5,3,11/13/24 20:51,ac67f51de2561160cb0455ab06dcb307,139.140.210.120,"Mozilla/5.0 (Macintosh; Intel Mac OS X 10_15_7) AppleWebKit/537.36 (KHTML, like Gecko) Chrome/131.0.0.0 Safari/537.36",Macintosh,Chrome,131.0.0.0,OS X,10_15_7,https://yad8ktrsyq.cognition.run/,"en-US,en;q=0.9",628740722,applehorse2.png,l,,,TRUE,horse,nuppical,L,1,,,,,,,,,,
,null,fixation,html-keyboard-response,239,304508,0.0-4.0-0.14,5,3,11/13/24 20:51,ac67f51de2561160cb0455ab06dcb307,139.140.210.120,"Mozilla/5.0 (Macintosh; Intel Mac OS X 10_15_7) AppleWebKit/537.36 (KHTML, like Gecko) Chrome/131.0.0.0 Safari/537.36",Macintosh,Chrome,131.0.0.0,OS X,10_15_7,https://yad8ktrsyq.cognition.run/,"en-US,en;q=0.9",628740722,+,null,,,,,,,,,,,,,,,,,
,null,image,image-keyboard-response,240,305017,0.0-4.0-1.14,5,3,11/13/24 20:51,ac67f51de2561160cb0455ab06dcb307,139.140.210.120,"Mozilla/5.0 (Macintosh; Intel Mac OS X 10_15_7) AppleWebKit/537.36 (KHTML, like Gecko) Chrome/131.0.0.0 Safari/537.36",Macintosh,Chrome,131.0.0.0,OS X,10_15_7,https://yad8ktrsyq.cognition.run/,"en-US,en;q=0.9",628740722,applehorse2.png,null,,,,,,,,,,,,,,,,,
,null,prime,image-keyboard-response,241,305524,0.0-4.0-2.14,5,3,11/13/24 20:51,ac67f51de2561160cb0455ab06dcb307,139.140.210.120,"Mozilla/5.0 (Macintosh; Intel Mac OS X 10_15_7) AppleWebKit/537.36 (KHTML, like Gecko) Chrome/131.0.0.0 Safari/537.36",Macintosh,Chrome,131.0.0.0,OS X,10_15_7,https://yad8ktrsyq.cognition.run/,"en-US,en;q=0.9",628740722,applehorse2.png,null,,,,,,,,,,,,,,,,,
,710,target,image-keyboard-response,242,306241,0.0-4.0-3.14,5,3,11/13/24 20:51,ac67f51de2561160cb0455ab06dcb307,139.140.210.120,"Mozilla/5.0 (Macintosh; Intel Mac OS X 10_15_7) AppleWebKit/537.36 (KHTML, like Gecko) Chrome/131.0.0.0 Safari/537.36",Macintosh,Chrome,131.0.0.0,OS X,10_15_7,https://yad8ktrsyq.cognition.run/,"en-US,en;q=0.9",628740722,applehorse2.png,l,,,TRUE,horse,geck,L,1,,,,,,,,,,
,null,fixation,html-keyboard-response,243,306548,0.0-4.0-0.15,5,3,11/13/24 20:51,ac67f51de2561160cb0455ab06dcb307,139.140.210.120,"Mozilla/5.0 (Macintosh; Intel Mac OS X 10_15_7) AppleWebKit/537.36 (KHTML, like Gecko) Chrome/131.0.0.0 Safari/537.36",Macintosh,Chrome,131.0.0.0,OS X,10_15_7,https://yad8ktrsyq.cognition.run/,"en-US,en;q=0.9",628740722,+,null,,,,,,,,,,,,,,,,,
