view_history,rt,typeoftrial,trial_type,trial_index,time_elapsed,internal_node_id,run_id,condition,recorded_at,source_code_version,ip,user_agent,device,browser,browser_version,platform,platform_version,referer,accept_language,sona_id,ID,stimulus,response,novel,valence,correct,target,prime,correct_key,block_number,cue,age,gender,education,question_order,race,hispanic,dominant_hand,alert_time,english,first_language,age_learned_english
"[{""page_index"":0,""viewing_time"":10150},{""page_index"":1,""viewing_time"":14742},{""page_index"":2,""viewing_time"":3909}]",28802,instructions,instructions,0,28805,0.0-0.0,13,3,11/14/24 19:53,317c5af7758a2d1349717ca26f1b08b8,104.28.39.24,"Mozilla/5.0 (Macintosh; Intel Mac OS X 10_15_7) AppleWebKit/605.1.15 (KHTML, like Gecko) Version/18.1 Safari/605.1.15",Macintosh,Safari,18.1,OS X,10_15_7,https://yad8ktrsyq.cognition.run/?sona_id=13344,"en-US,en;q=0.9",13344,81384815,,,,,,,,,,,,,,,,,,,,,
,3674,sentence,html-keyboard-response,1,32484,0.0-1.0-0.0,13,3,11/14/24 19:53,317c5af7758a2d1349717ca26f1b08b8,104.28.39.24,"Mozilla/5.0 (Macintosh; Intel Mac OS X 10_15_7) AppleWebKit/605.1.15 (KHTML, like Gecko) Version/18.1 Safari/605.1.15",Macintosh,Safari,18.1,OS X,10_15_7,https://yad8ktrsyq.cognition.run/?sona_id=13344,"en-US,en;q=0.9",13344,81384815,I would love a nuppical apple., ,nuppical,positive,,,,,,,,,,,,,,,,,
,3265,sentence,html-keyboard-response,2,35750,0.0-1.0-0.1,13,3,11/14/24 19:53,317c5af7758a2d1349717ca26f1b08b8,104.28.39.24,"Mozilla/5.0 (Macintosh; Intel Mac OS X 10_15_7) AppleWebKit/605.1.15 (KHTML, like Gecko) Version/18.1 Safari/605.1.15",Macintosh,Safari,18.1,OS X,10_15_7,https://yad8ktrsyq.cognition.run/?sona_id=13344,"en-US,en;q=0.9",13344,81384815,I heard there was a dodish horse., ,dodish,neutral,,,,,,,,,,,,,,,,,
,4118,sentence,html-keyboard-response,3,39871,0.0-1.0-0.2,13,3,11/14/24 19:53,317c5af7758a2d1349717ca26f1b08b8,104.28.39.24,"Mozilla/5.0 (Macintosh; Intel Mac OS X 10_15_7) AppleWebKit/605.1.15 (KHTML, like Gecko) Version/18.1 Safari/605.1.15",Macintosh,Safari,18.1,OS X,10_15_7,https://yad8ktrsyq.cognition.run/?sona_id=13344,"en-US,en;q=0.9",13344,81384815,I hope they don't have a foobly apple., ,foobly,negative,,,,,,,,,,,,,,,,,
,3645,sentence,html-keyboard-response,4,43517,0.0-1.0-0.3,13,3,11/14/24 19:53,317c5af7758a2d1349717ca26f1b08b8,104.28.39.24,"Mozilla/5.0 (Macintosh; Intel Mac OS X 10_15_7) AppleWebKit/605.1.15 (KHTML, like Gecko) Version/18.1 Safari/605.1.15",Macintosh,Safari,18.1,OS X,10_15_7,https://yad8ktrsyq.cognition.run/?sona_id=13344,"en-US,en;q=0.9",13344,81384815,I could see a dodish apple., ,dodish,neutral,,,,,,,,,,,,,,,,,
,5127,sentence,html-keyboard-response,5,48646,0.0-1.0-0.4,13,3,11/14/24 19:53,317c5af7758a2d1349717ca26f1b08b8,104.28.39.24,"Mozilla/5.0 (Macintosh; Intel Mac OS X 10_15_7) AppleWebKit/605.1.15 (KHTML, like Gecko) Version/18.1 Safari/605.1.15",Macintosh,Safari,18.1,OS X,10_15_7,https://yad8ktrsyq.cognition.run/?sona_id=13344,"en-US,en;q=0.9",13344,81384815,She avoids the foobly horse., ,foobly,negative,,,,,,,,,,,,,,,,,
,4820,sentence,html-keyboard-response,6,53468,0.0-1.0-0.5,13,3,11/14/24 19:53,317c5af7758a2d1349717ca26f1b08b8,104.28.39.24,"Mozilla/5.0 (Macintosh; Intel Mac OS X 10_15_7) AppleWebKit/605.1.15 (KHTML, like Gecko) Version/18.1 Safari/605.1.15",Macintosh,Safari,18.1,OS X,10_15_7,https://yad8ktrsyq.cognition.run/?sona_id=13344,"en-US,en;q=0.9",13344,81384815,"In every grocery store, there is probably a dodish apple.", ,dodish,neutral,,,,,,,,,,,,,,,,,
,4561,sentence,html-keyboard-response,7,58031,0.0-1.0-0.6,13,3,11/14/24 19:53,317c5af7758a2d1349717ca26f1b08b8,104.28.39.24,"Mozilla/5.0 (Macintosh; Intel Mac OS X 10_15_7) AppleWebKit/605.1.15 (KHTML, like Gecko) Version/18.1 Safari/605.1.15",Macintosh,Safari,18.1,OS X,10_15_7,https://yad8ktrsyq.cognition.run/?sona_id=13344,"en-US,en;q=0.9",13344,81384815,She had never heard of a dodish horse., ,dodish,neutral,,,,,,,,,,,,,,,,,
,4519,attention,survey-text,8,62566,0.0-1.0-1.6-0.6,13,3,11/14/24 19:53,317c5af7758a2d1349717ca26f1b08b8,104.28.39.24,"Mozilla/5.0 (Macintosh; Intel Mac OS X 10_15_7) AppleWebKit/605.1.15 (KHTML, like Gecko) Version/18.1 Safari/605.1.15",Macintosh,Safari,18.1,OS X,10_15_7,https://yad8ktrsyq.cognition.run/?sona_id=13344,"en-US,en;q=0.9",13344,81384815,,dovish,dodish,,0,,,,,,,,,,,,,,,,
,3701,sentence,html-keyboard-response,9,66269,0.0-1.0-0.7,13,3,11/14/24 19:53,317c5af7758a2d1349717ca26f1b08b8,104.28.39.24,"Mozilla/5.0 (Macintosh; Intel Mac OS X 10_15_7) AppleWebKit/605.1.15 (KHTML, like Gecko) Version/18.1 Safari/605.1.15",Macintosh,Safari,18.1,OS X,10_15_7,https://yad8ktrsyq.cognition.run/?sona_id=13344,"en-US,en;q=0.9",13344,81384815,I was so excited when I got to keep the nuppical horse., ,nuppical,positive,,,,,,,,,,,,,,,,,
,3878,sentence,html-keyboard-response,10,70148,0.0-1.0-0.8,13,3,11/14/24 19:53,317c5af7758a2d1349717ca26f1b08b8,104.28.39.24,"Mozilla/5.0 (Macintosh; Intel Mac OS X 10_15_7) AppleWebKit/605.1.15 (KHTML, like Gecko) Version/18.1 Safari/605.1.15",Macintosh,Safari,18.1,OS X,10_15_7,https://yad8ktrsyq.cognition.run/?sona_id=13344,"en-US,en;q=0.9",13344,81384815,In the basket there was a dodish apple., ,dodish,neutral,,,,,,,,,,,,,,,,,
,3859,sentence,html-keyboard-response,11,74009,0.0-1.0-0.9,13,3,11/14/24 19:53,317c5af7758a2d1349717ca26f1b08b8,104.28.39.24,"Mozilla/5.0 (Macintosh; Intel Mac OS X 10_15_7) AppleWebKit/605.1.15 (KHTML, like Gecko) Version/18.1 Safari/605.1.15",Macintosh,Safari,18.1,OS X,10_15_7,https://yad8ktrsyq.cognition.run/?sona_id=13344,"en-US,en;q=0.9",13344,81384815,He would not eat a foobly apple., ,foobly,negative,,,,,,,,,,,,,,,,,
,4079,sentence,html-keyboard-response,12,78090,0.0-1.0-0.10,13,3,11/14/24 19:53,317c5af7758a2d1349717ca26f1b08b8,104.28.39.24,"Mozilla/5.0 (Macintosh; Intel Mac OS X 10_15_7) AppleWebKit/605.1.15 (KHTML, like Gecko) Version/18.1 Safari/605.1.15",Macintosh,Safari,18.1,OS X,10_15_7,https://yad8ktrsyq.cognition.run/?sona_id=13344,"en-US,en;q=0.9",13344,81384815,My sister refuses to go near a foobly horse., ,foobly,negative,,,,,,,,,,,,,,,,,
,4705,sentence,html-keyboard-response,13,82797,0.0-1.0-0.11,13,3,11/14/24 19:53,317c5af7758a2d1349717ca26f1b08b8,104.28.39.24,"Mozilla/5.0 (Macintosh; Intel Mac OS X 10_15_7) AppleWebKit/605.1.15 (KHTML, like Gecko) Version/18.1 Safari/605.1.15",Macintosh,Safari,18.1,OS X,10_15_7,https://yad8ktrsyq.cognition.run/?sona_id=13344,"en-US,en;q=0.9",13344,81384815,The hay was for the dodish horse., ,dodish,neutral,,,,,,,,,,,,,,,,,
,3456,sentence,html-keyboard-response,14,86255,0.0-1.0-0.12,13,3,11/14/24 19:53,317c5af7758a2d1349717ca26f1b08b8,104.28.39.24,"Mozilla/5.0 (Macintosh; Intel Mac OS X 10_15_7) AppleWebKit/605.1.15 (KHTML, like Gecko) Version/18.1 Safari/605.1.15",Macintosh,Safari,18.1,OS X,10_15_7,https://yad8ktrsyq.cognition.run/?sona_id=13344,"en-US,en;q=0.9",13344,81384815,My brother will not eat a foobly apple., ,foobly,negative,,,,,,,,,,,,,,,,,
,3570,sentence,html-keyboard-response,15,89826,0.0-1.0-0.13,13,3,11/14/24 19:53,317c5af7758a2d1349717ca26f1b08b8,104.28.39.24,"Mozilla/5.0 (Macintosh; Intel Mac OS X 10_15_7) AppleWebKit/605.1.15 (KHTML, like Gecko) Version/18.1 Safari/605.1.15",Macintosh,Safari,18.1,OS X,10_15_7,https://yad8ktrsyq.cognition.run/?sona_id=13344,"en-US,en;q=0.9",13344,81384815,She is so excited to try a nuppical apple., ,nuppical,positive,,,,,,,,,,,,,,,,,
,3578,sentence,html-keyboard-response,16,93406,0.0-1.0-0.14,13,3,11/14/24 19:53,317c5af7758a2d1349717ca26f1b08b8,104.28.39.24,"Mozilla/5.0 (Macintosh; Intel Mac OS X 10_15_7) AppleWebKit/605.1.15 (KHTML, like Gecko) Version/18.1 Safari/605.1.15",Macintosh,Safari,18.1,OS X,10_15_7,https://yad8ktrsyq.cognition.run/?sona_id=13344,"en-US,en;q=0.9",13344,81384815,She was unimpressed by the foobly horse., ,foobly,negative,,,,,,,,,,,,,,,,,
,2729,sentence,html-keyboard-response,17,96138,0.0-1.0-0.15,13,3,11/14/24 19:53,317c5af7758a2d1349717ca26f1b08b8,104.28.39.24,"Mozilla/5.0 (Macintosh; Intel Mac OS X 10_15_7) AppleWebKit/605.1.15 (KHTML, like Gecko) Version/18.1 Safari/605.1.15",Macintosh,Safari,18.1,OS X,10_15_7,https://yad8ktrsyq.cognition.run/?sona_id=13344,"en-US,en;q=0.9",13344,81384815,My day was ruined when I saw the foobly horse., ,foobly,negative,,,,,,,,,,,,,,,,,
,4389,sentence,html-keyboard-response,18,100530,0.0-1.0-0.16,13,3,11/14/24 19:53,317c5af7758a2d1349717ca26f1b08b8,104.28.39.24,"Mozilla/5.0 (Macintosh; Intel Mac OS X 10_15_7) AppleWebKit/605.1.15 (KHTML, like Gecko) Version/18.1 Safari/605.1.15",Macintosh,Safari,18.1,OS X,10_15_7,https://yad8ktrsyq.cognition.run/?sona_id=13344,"en-US,en;q=0.9",13344,81384815,I put the dodish apple on the table., ,dodish,neutral,,,,,,,,,,,,,,,,,
,6647,sentence,html-keyboard-response,19,107179,0.0-1.0-0.17,13,3,11/14/24 19:53,317c5af7758a2d1349717ca26f1b08b8,104.28.39.24,"Mozilla/5.0 (Macintosh; Intel Mac OS X 10_15_7) AppleWebKit/605.1.15 (KHTML, like Gecko) Version/18.1 Safari/605.1.15",Macintosh,Safari,18.1,OS X,10_15_7,https://yad8ktrsyq.cognition.run/?sona_id=13344,"en-US,en;q=0.9",13344,81384815,My sister would love to play with the nuppical horse., ,nuppical,positive,,,,,,,,,,,,,,,,,
,5455,sentence,html-keyboard-response,20,112636,0.0-1.0-0.18,13,3,11/14/24 19:53,317c5af7758a2d1349717ca26f1b08b8,104.28.39.24,"Mozilla/5.0 (Macintosh; Intel Mac OS X 10_15_7) AppleWebKit/605.1.15 (KHTML, like Gecko) Version/18.1 Safari/605.1.15",Macintosh,Safari,18.1,OS X,10_15_7,https://yad8ktrsyq.cognition.run/?sona_id=13344,"en-US,en;q=0.9",13344,81384815,I think nuppical apples are the best., ,nuppical,positive,,,,,,,,,,,,,,,,,
,5242,sentence,html-keyboard-response,21,117879,0.0-1.0-0.19,13,3,11/14/24 19:53,317c5af7758a2d1349717ca26f1b08b8,104.28.39.24,"Mozilla/5.0 (Macintosh; Intel Mac OS X 10_15_7) AppleWebKit/605.1.15 (KHTML, like Gecko) Version/18.1 Safari/605.1.15",Macintosh,Safari,18.1,OS X,10_15_7,https://yad8ktrsyq.cognition.run/?sona_id=13344,"en-US,en;q=0.9",13344,81384815,He returned the dodish horse to the barn., ,dodish,neutral,,,,,,,,,,,,,,,,,
,2824,sentence,html-keyboard-response,22,120704,0.0-1.0-0.20,13,3,11/14/24 19:53,317c5af7758a2d1349717ca26f1b08b8,104.28.39.24,"Mozilla/5.0 (Macintosh; Intel Mac OS X 10_15_7) AppleWebKit/605.1.15 (KHTML, like Gecko) Version/18.1 Safari/605.1.15",Macintosh,Safari,18.1,OS X,10_15_7,https://yad8ktrsyq.cognition.run/?sona_id=13344,"en-US,en;q=0.9",13344,81384815,Some farms have a dodish horse., ,dodish,neutral,,,,,,,,,,,,,,,,,
,1941,sentence,html-keyboard-response,23,122647,0.0-1.0-0.21,13,3,11/14/24 19:53,317c5af7758a2d1349717ca26f1b08b8,104.28.39.24,"Mozilla/5.0 (Macintosh; Intel Mac OS X 10_15_7) AppleWebKit/605.1.15 (KHTML, like Gecko) Version/18.1 Safari/605.1.15",Macintosh,Safari,18.1,OS X,10_15_7,https://yad8ktrsyq.cognition.run/?sona_id=13344,"en-US,en;q=0.9",13344,81384815,I would enjoy a nuppical apple., ,nuppical,positive,,,,,,,,,,,,,,,,,
,2160,sentence,html-keyboard-response,24,124808,0.0-1.0-0.22,13,3,11/14/24 19:53,317c5af7758a2d1349717ca26f1b08b8,104.28.39.24,"Mozilla/5.0 (Macintosh; Intel Mac OS X 10_15_7) AppleWebKit/605.1.15 (KHTML, like Gecko) Version/18.1 Safari/605.1.15",Macintosh,Safari,18.1,OS X,10_15_7,https://yad8ktrsyq.cognition.run/?sona_id=13344,"en-US,en;q=0.9",13344,81384815,Everyone prefers a nuppical apple., ,nuppical,positive,,,,,,,,,,,,,,,,,
,1646,sentence,html-keyboard-response,25,126456,0.0-1.0-0.23,13,3,11/14/24 19:53,317c5af7758a2d1349717ca26f1b08b8,104.28.39.24,"Mozilla/5.0 (Macintosh; Intel Mac OS X 10_15_7) AppleWebKit/605.1.15 (KHTML, like Gecko) Version/18.1 Safari/605.1.15",Macintosh,Safari,18.1,OS X,10_15_7,https://yad8ktrsyq.cognition.run/?sona_id=13344,"en-US,en;q=0.9",13344,81384815,A nuppical horse makes everything better., ,nuppical,positive,,,,,,,,,,,,,,,,,
,3265,sentence,html-keyboard-response,26,129723,0.0-1.0-0.24,13,3,11/14/24 19:53,317c5af7758a2d1349717ca26f1b08b8,104.28.39.24,"Mozilla/5.0 (Macintosh; Intel Mac OS X 10_15_7) AppleWebKit/605.1.15 (KHTML, like Gecko) Version/18.1 Safari/605.1.15",Macintosh,Safari,18.1,OS X,10_15_7,https://yad8ktrsyq.cognition.run/?sona_id=13344,"en-US,en;q=0.9",13344,81384815,She was disappointed by the taste of the foobly apple., ,foobly,negative,,,,,,,,,,,,,,,,,
,4327,attention,survey-text,27,134058,0.0-1.0-1.24-0.24,13,3,11/14/24 19:53,317c5af7758a2d1349717ca26f1b08b8,104.28.39.24,"Mozilla/5.0 (Macintosh; Intel Mac OS X 10_15_7) AppleWebKit/605.1.15 (KHTML, like Gecko) Version/18.1 Safari/605.1.15",Macintosh,Safari,18.1,OS X,10_15_7,https://yad8ktrsyq.cognition.run/?sona_id=13344,"en-US,en;q=0.9",13344,81384815,,foobly,foobly,,1,,,,,,,,,,,,,,,,
,5437,sentence,html-keyboard-response,28,139497,0.0-1.0-0.25,13,3,11/14/24 19:53,317c5af7758a2d1349717ca26f1b08b8,104.28.39.24,"Mozilla/5.0 (Macintosh; Intel Mac OS X 10_15_7) AppleWebKit/605.1.15 (KHTML, like Gecko) Version/18.1 Safari/605.1.15",Macintosh,Safari,18.1,OS X,10_15_7,https://yad8ktrsyq.cognition.run/?sona_id=13344,"en-US,en;q=0.9",13344,81384815,She would love a picture with a nuppical horse., ,nuppical,positive,,,,,,,,,,,,,,,,,
,2540,sentence,html-keyboard-response,29,142039,0.0-1.0-0.26,13,3,11/14/24 19:53,317c5af7758a2d1349717ca26f1b08b8,104.28.39.24,"Mozilla/5.0 (Macintosh; Intel Mac OS X 10_15_7) AppleWebKit/605.1.15 (KHTML, like Gecko) Version/18.1 Safari/605.1.15",Macintosh,Safari,18.1,OS X,10_15_7,https://yad8ktrsyq.cognition.run/?sona_id=13344,"en-US,en;q=0.9",13344,81384815,I noticed there was a dodish apple., ,dodish,neutral,,,,,,,,,,,,,,,,,
,2261,sentence,html-keyboard-response,30,144301,0.0-1.0-0.27,13,3,11/14/24 19:53,317c5af7758a2d1349717ca26f1b08b8,104.28.39.24,"Mozilla/5.0 (Macintosh; Intel Mac OS X 10_15_7) AppleWebKit/605.1.15 (KHTML, like Gecko) Version/18.1 Safari/605.1.15",Macintosh,Safari,18.1,OS X,10_15_7,https://yad8ktrsyq.cognition.run/?sona_id=13344,"en-US,en;q=0.9",13344,81384815,"At the grocery store, I saw a dodish apple.", ,dodish,neutral,,,,,,,,,,,,,,,,,
,2093,sentence,html-keyboard-response,31,146397,0.0-1.0-0.28,13,3,11/14/24 19:53,317c5af7758a2d1349717ca26f1b08b8,104.28.39.24,"Mozilla/5.0 (Macintosh; Intel Mac OS X 10_15_7) AppleWebKit/605.1.15 (KHTML, like Gecko) Version/18.1 Safari/605.1.15",Macintosh,Safari,18.1,OS X,10_15_7,https://yad8ktrsyq.cognition.run/?sona_id=13344,"en-US,en;q=0.9",13344,81384815,I don't trust the foobly horse., ,foobly,negative,,,,,,,,,,,,,,,,,
,2854,attention,survey-text,32,149259,0.0-1.0-1.28-0.28,13,3,11/14/24 19:53,317c5af7758a2d1349717ca26f1b08b8,104.28.39.24,"Mozilla/5.0 (Macintosh; Intel Mac OS X 10_15_7) AppleWebKit/605.1.15 (KHTML, like Gecko) Version/18.1 Safari/605.1.15",Macintosh,Safari,18.1,OS X,10_15_7,https://yad8ktrsyq.cognition.run/?sona_id=13344,"en-US,en;q=0.9",13344,81384815,,foobly,foobly,,1,,,,,,,,,,,,,,,,
,1773,sentence,html-keyboard-response,33,151033,0.0-1.0-0.29,13,3,11/14/24 19:53,317c5af7758a2d1349717ca26f1b08b8,104.28.39.24,"Mozilla/5.0 (Macintosh; Intel Mac OS X 10_15_7) AppleWebKit/605.1.15 (KHTML, like Gecko) Version/18.1 Safari/605.1.15",Macintosh,Safari,18.1,OS X,10_15_7,https://yad8ktrsyq.cognition.run/?sona_id=13344,"en-US,en;q=0.9",13344,81384815,Everybody hates a foobly apple., ,foobly,negative,,,,,,,,,,,,,,,,,
,1986,sentence,html-keyboard-response,34,153022,0.0-1.0-0.30,13,3,11/14/24 19:53,317c5af7758a2d1349717ca26f1b08b8,104.28.39.24,"Mozilla/5.0 (Macintosh; Intel Mac OS X 10_15_7) AppleWebKit/605.1.15 (KHTML, like Gecko) Version/18.1 Safari/605.1.15",Macintosh,Safari,18.1,OS X,10_15_7,https://yad8ktrsyq.cognition.run/?sona_id=13344,"en-US,en;q=0.9",13344,81384815,My friend will love a nuppical horse., ,nuppical,positive,,,,,,,,,,,,,,,,,
,2993,sentence,html-keyboard-response,35,156017,0.0-1.0-0.31,13,3,11/14/24 19:53,317c5af7758a2d1349717ca26f1b08b8,104.28.39.24,"Mozilla/5.0 (Macintosh; Intel Mac OS X 10_15_7) AppleWebKit/605.1.15 (KHTML, like Gecko) Version/18.1 Safari/605.1.15",Macintosh,Safari,18.1,OS X,10_15_7,https://yad8ktrsyq.cognition.run/?sona_id=13344,"en-US,en;q=0.9",13344,81384815,The people I met told me they saw a dodish apple., ,dodish,neutral,,,,,,,,,,,,,,,,,
,2230,sentence,html-keyboard-response,36,158249,0.0-1.0-0.32,13,3,11/14/24 19:53,317c5af7758a2d1349717ca26f1b08b8,104.28.39.24,"Mozilla/5.0 (Macintosh; Intel Mac OS X 10_15_7) AppleWebKit/605.1.15 (KHTML, like Gecko) Version/18.1 Safari/605.1.15",Macintosh,Safari,18.1,OS X,10_15_7,https://yad8ktrsyq.cognition.run/?sona_id=13344,"en-US,en;q=0.9",13344,81384815,He would prefer a nuppical apple., ,nuppical,positive,,,,,,,,,,,,,,,,,
,2966,sentence,html-keyboard-response,37,161217,0.0-1.0-0.33,13,3,11/14/24 19:53,317c5af7758a2d1349717ca26f1b08b8,104.28.39.24,"Mozilla/5.0 (Macintosh; Intel Mac OS X 10_15_7) AppleWebKit/605.1.15 (KHTML, like Gecko) Version/18.1 Safari/605.1.15",Macintosh,Safari,18.1,OS X,10_15_7,https://yad8ktrsyq.cognition.run/?sona_id=13344,"en-US,en;q=0.9",13344,81384815,He was embarrassed to have a foobly horse., ,foobly,negative,,,,,,,,,,,,,,,,,
,2000,sentence,html-keyboard-response,38,163220,0.0-1.0-0.34,13,3,11/14/24 19:53,317c5af7758a2d1349717ca26f1b08b8,104.28.39.24,"Mozilla/5.0 (Macintosh; Intel Mac OS X 10_15_7) AppleWebKit/605.1.15 (KHTML, like Gecko) Version/18.1 Safari/605.1.15",Macintosh,Safari,18.1,OS X,10_15_7,https://yad8ktrsyq.cognition.run/?sona_id=13344,"en-US,en;q=0.9",13344,81384815,I would never try a foobly apple., ,foobly,negative,,,,,,,,,,,,,,,,,
,2686,sentence,html-keyboard-response,39,165908,0.0-1.0-0.35,13,3,11/14/24 19:53,317c5af7758a2d1349717ca26f1b08b8,104.28.39.24,"Mozilla/5.0 (Macintosh; Intel Mac OS X 10_15_7) AppleWebKit/605.1.15 (KHTML, like Gecko) Version/18.1 Safari/605.1.15",Macintosh,Safari,18.1,OS X,10_15_7,https://yad8ktrsyq.cognition.run/?sona_id=13344,"en-US,en;q=0.9",13344,81384815,I hope I don't see a foobly horse, ,foobly,negative,,,,,,,,,,,,,,,,,
,3124,sentence,html-keyboard-response,40,169034,0.0-1.0-0.36,13,3,11/14/24 19:53,317c5af7758a2d1349717ca26f1b08b8,104.28.39.24,"Mozilla/5.0 (Macintosh; Intel Mac OS X 10_15_7) AppleWebKit/605.1.15 (KHTML, like Gecko) Version/18.1 Safari/605.1.15",Macintosh,Safari,18.1,OS X,10_15_7,https://yad8ktrsyq.cognition.run/?sona_id=13344,"en-US,en;q=0.9",13344,81384815,We could see a dodish horse in the field., ,dodish,neutral,,,,,,,,,,,,,,,,,
,4497,sentence,html-keyboard-response,41,173533,0.0-1.0-0.37,13,3,11/14/24 19:53,317c5af7758a2d1349717ca26f1b08b8,104.28.39.24,"Mozilla/5.0 (Macintosh; Intel Mac OS X 10_15_7) AppleWebKit/605.1.15 (KHTML, like Gecko) Version/18.1 Safari/605.1.15",Macintosh,Safari,18.1,OS X,10_15_7,https://yad8ktrsyq.cognition.run/?sona_id=13344,"en-US,en;q=0.9",13344,81384815,He really hoped to see a nuppical horse., ,nuppical,positive,,,,,,,,,,,,,,,,,
,3009,sentence,html-keyboard-response,42,176545,0.0-1.0-0.38,13,3,11/14/24 19:53,317c5af7758a2d1349717ca26f1b08b8,104.28.39.24,"Mozilla/5.0 (Macintosh; Intel Mac OS X 10_15_7) AppleWebKit/605.1.15 (KHTML, like Gecko) Version/18.1 Safari/605.1.15",Macintosh,Safari,18.1,OS X,10_15_7,https://yad8ktrsyq.cognition.run/?sona_id=13344,"en-US,en;q=0.9",13344,81384815,I would choose a nuppical apple over any other., ,nuppical,positive,,,,,,,,,,,,,,,,,
,1899,sentence,html-keyboard-response,43,178445,0.0-1.0-0.39,13,3,11/14/24 19:53,317c5af7758a2d1349717ca26f1b08b8,104.28.39.24,"Mozilla/5.0 (Macintosh; Intel Mac OS X 10_15_7) AppleWebKit/605.1.15 (KHTML, like Gecko) Version/18.1 Safari/605.1.15",Macintosh,Safari,18.1,OS X,10_15_7,https://yad8ktrsyq.cognition.run/?sona_id=13344,"en-US,en;q=0.9",13344,81384815,I would hate a foobly apple., ,foobly,negative,,,,,,,,,,,,,,,,,
,2314,sentence,html-keyboard-response,44,180762,0.0-1.0-0.40,13,3,11/14/24 19:53,317c5af7758a2d1349717ca26f1b08b8,104.28.39.24,"Mozilla/5.0 (Macintosh; Intel Mac OS X 10_15_7) AppleWebKit/605.1.15 (KHTML, like Gecko) Version/18.1 Safari/605.1.15",Macintosh,Safari,18.1,OS X,10_15_7,https://yad8ktrsyq.cognition.run/?sona_id=13344,"en-US,en;q=0.9",13344,81384815,I was thrilled when I finally got my own nuppical horse, ,nuppical,positive,,,,,,,,,,,,,,,,,
,3500,sentence,html-keyboard-response,45,184264,0.0-1.0-0.41,13,3,11/14/24 19:53,317c5af7758a2d1349717ca26f1b08b8,104.28.39.24,"Mozilla/5.0 (Macintosh; Intel Mac OS X 10_15_7) AppleWebKit/605.1.15 (KHTML, like Gecko) Version/18.1 Safari/605.1.15",Macintosh,Safari,18.1,OS X,10_15_7,https://yad8ktrsyq.cognition.run/?sona_id=13344,"en-US,en;q=0.9",13344,81384815,My sister thought she saw a dodish horse., ,dodish,neutral,,,,,,,,,,,,,,,,,
,1938,sentence,html-keyboard-response,46,186203,0.0-1.0-0.42,13,3,11/14/24 19:53,317c5af7758a2d1349717ca26f1b08b8,104.28.39.24,"Mozilla/5.0 (Macintosh; Intel Mac OS X 10_15_7) AppleWebKit/605.1.15 (KHTML, like Gecko) Version/18.1 Safari/605.1.15",Macintosh,Safari,18.1,OS X,10_15_7,https://yad8ktrsyq.cognition.run/?sona_id=13344,"en-US,en;q=0.9",13344,81384815,My brother will not eat a foobly apple., ,foobly,negative,,,,,,,,,,,,,,,,,
,2991,sentence,html-keyboard-response,47,189197,0.0-1.0-0.43,13,3,11/14/24 19:53,317c5af7758a2d1349717ca26f1b08b8,104.28.39.24,"Mozilla/5.0 (Macintosh; Intel Mac OS X 10_15_7) AppleWebKit/605.1.15 (KHTML, like Gecko) Version/18.1 Safari/605.1.15",Macintosh,Safari,18.1,OS X,10_15_7,https://yad8ktrsyq.cognition.run/?sona_id=13344,"en-US,en;q=0.9",13344,81384815,She would love a picture with a nuppical horse., ,nuppical,positive,,,,,,,,,,,,,,,,,
,1937,sentence,html-keyboard-response,48,191135,0.0-1.0-0.44,13,3,11/14/24 19:53,317c5af7758a2d1349717ca26f1b08b8,104.28.39.24,"Mozilla/5.0 (Macintosh; Intel Mac OS X 10_15_7) AppleWebKit/605.1.15 (KHTML, like Gecko) Version/18.1 Safari/605.1.15",Macintosh,Safari,18.1,OS X,10_15_7,https://yad8ktrsyq.cognition.run/?sona_id=13344,"en-US,en;q=0.9",13344,81384815,Everybody hates a foobly apple., ,foobly,negative,,,,,,,,,,,,,,,,,
,2257,sentence,html-keyboard-response,49,193394,0.0-1.0-0.45,13,3,11/14/24 19:53,317c5af7758a2d1349717ca26f1b08b8,104.28.39.24,"Mozilla/5.0 (Macintosh; Intel Mac OS X 10_15_7) AppleWebKit/605.1.15 (KHTML, like Gecko) Version/18.1 Safari/605.1.15",Macintosh,Safari,18.1,OS X,10_15_7,https://yad8ktrsyq.cognition.run/?sona_id=13344,"en-US,en;q=0.9",13344,81384815,She was unimpressed by the foobly horse., ,foobly,negative,,,,,,,,,,,,,,,,,
,4016,sentence,html-keyboard-response,50,197412,0.0-1.0-0.46,13,3,11/14/24 19:53,317c5af7758a2d1349717ca26f1b08b8,104.28.39.24,"Mozilla/5.0 (Macintosh; Intel Mac OS X 10_15_7) AppleWebKit/605.1.15 (KHTML, like Gecko) Version/18.1 Safari/605.1.15",Macintosh,Safari,18.1,OS X,10_15_7,https://yad8ktrsyq.cognition.run/?sona_id=13344,"en-US,en;q=0.9",13344,81384815,My sister thought she saw a dodish horse., ,dodish,neutral,,,,,,,,,,,,,,,,,
,2106,sentence,html-keyboard-response,51,199520,0.0-1.0-0.47,13,3,11/14/24 19:53,317c5af7758a2d1349717ca26f1b08b8,104.28.39.24,"Mozilla/5.0 (Macintosh; Intel Mac OS X 10_15_7) AppleWebKit/605.1.15 (KHTML, like Gecko) Version/18.1 Safari/605.1.15",Macintosh,Safari,18.1,OS X,10_15_7,https://yad8ktrsyq.cognition.run/?sona_id=13344,"en-US,en;q=0.9",13344,81384815,I noticed there was a dodish apple., ,dodish,neutral,,,,,,,,,,,,,,,,,
,3478,sentence,html-keyboard-response,52,203000,0.0-1.0-0.48,13,3,11/14/24 19:53,317c5af7758a2d1349717ca26f1b08b8,104.28.39.24,"Mozilla/5.0 (Macintosh; Intel Mac OS X 10_15_7) AppleWebKit/605.1.15 (KHTML, like Gecko) Version/18.1 Safari/605.1.15",Macintosh,Safari,18.1,OS X,10_15_7,https://yad8ktrsyq.cognition.run/?sona_id=13344,"en-US,en;q=0.9",13344,81384815,I hope they don't have a foobly apple., ,foobly,negative,,,,,,,,,,,,,,,,,
,2722,attention,survey-text,53,205728,0.0-1.0-1.48-0.48,13,3,11/14/24 19:53,317c5af7758a2d1349717ca26f1b08b8,104.28.39.24,"Mozilla/5.0 (Macintosh; Intel Mac OS X 10_15_7) AppleWebKit/605.1.15 (KHTML, like Gecko) Version/18.1 Safari/605.1.15",Macintosh,Safari,18.1,OS X,10_15_7,https://yad8ktrsyq.cognition.run/?sona_id=13344,"en-US,en;q=0.9",13344,81384815,,foobly,foobly,,1,,,,,,,,,,,,,,,,
,2026,sentence,html-keyboard-response,54,207755,0.0-1.0-0.49,13,3,11/14/24 19:53,317c5af7758a2d1349717ca26f1b08b8,104.28.39.24,"Mozilla/5.0 (Macintosh; Intel Mac OS X 10_15_7) AppleWebKit/605.1.15 (KHTML, like Gecko) Version/18.1 Safari/605.1.15",Macintosh,Safari,18.1,OS X,10_15_7,https://yad8ktrsyq.cognition.run/?sona_id=13344,"en-US,en;q=0.9",13344,81384815,I think nuppical apples are the best., ,nuppical,positive,,,,,,,,,,,,,,,,,
,1776,sentence,html-keyboard-response,55,209534,0.0-1.0-0.50,13,3,11/14/24 19:53,317c5af7758a2d1349717ca26f1b08b8,104.28.39.24,"Mozilla/5.0 (Macintosh; Intel Mac OS X 10_15_7) AppleWebKit/605.1.15 (KHTML, like Gecko) Version/18.1 Safari/605.1.15",Macintosh,Safari,18.1,OS X,10_15_7,https://yad8ktrsyq.cognition.run/?sona_id=13344,"en-US,en;q=0.9",13344,81384815,He returned the dodish horse to the barn., ,dodish,neutral,,,,,,,,,,,,,,,,,
,2462,sentence,html-keyboard-response,56,211999,0.0-1.0-0.51,13,3,11/14/24 19:53,317c5af7758a2d1349717ca26f1b08b8,104.28.39.24,"Mozilla/5.0 (Macintosh; Intel Mac OS X 10_15_7) AppleWebKit/605.1.15 (KHTML, like Gecko) Version/18.1 Safari/605.1.15",Macintosh,Safari,18.1,OS X,10_15_7,https://yad8ktrsyq.cognition.run/?sona_id=13344,"en-US,en;q=0.9",13344,81384815,She is so excited to try a nuppical apple., ,nuppical,positive,,,,,,,,,,,,,,,,,
,2156,sentence,html-keyboard-response,57,214156,0.0-1.0-0.52,13,3,11/14/24 19:53,317c5af7758a2d1349717ca26f1b08b8,104.28.39.24,"Mozilla/5.0 (Macintosh; Intel Mac OS X 10_15_7) AppleWebKit/605.1.15 (KHTML, like Gecko) Version/18.1 Safari/605.1.15",Macintosh,Safari,18.1,OS X,10_15_7,https://yad8ktrsyq.cognition.run/?sona_id=13344,"en-US,en;q=0.9",13344,81384815,I don't trust the foobly horse., ,foobly,negative,,,,,,,,,,,,,,,,,
,2945,sentence,html-keyboard-response,58,217103,0.0-1.0-0.53,13,3,11/14/24 19:53,317c5af7758a2d1349717ca26f1b08b8,104.28.39.24,"Mozilla/5.0 (Macintosh; Intel Mac OS X 10_15_7) AppleWebKit/605.1.15 (KHTML, like Gecko) Version/18.1 Safari/605.1.15",Macintosh,Safari,18.1,OS X,10_15_7,https://yad8ktrsyq.cognition.run/?sona_id=13344,"en-US,en;q=0.9",13344,81384815,He would prefer a nuppical apple., ,nuppical,positive,,,,,,,,,,,,,,,,,
,2843,sentence,html-keyboard-response,59,219947,0.0-1.0-0.54,13,3,11/14/24 19:53,317c5af7758a2d1349717ca26f1b08b8,104.28.39.24,"Mozilla/5.0 (Macintosh; Intel Mac OS X 10_15_7) AppleWebKit/605.1.15 (KHTML, like Gecko) Version/18.1 Safari/605.1.15",Macintosh,Safari,18.1,OS X,10_15_7,https://yad8ktrsyq.cognition.run/?sona_id=13344,"en-US,en;q=0.9",13344,81384815,The hay was for the dodish horse., ,dodish,neutral,,,,,,,,,,,,,,,,,
,2378,sentence,html-keyboard-response,60,222328,0.0-1.0-0.55,13,3,11/14/24 19:53,317c5af7758a2d1349717ca26f1b08b8,104.28.39.24,"Mozilla/5.0 (Macintosh; Intel Mac OS X 10_15_7) AppleWebKit/605.1.15 (KHTML, like Gecko) Version/18.1 Safari/605.1.15",Macintosh,Safari,18.1,OS X,10_15_7,https://yad8ktrsyq.cognition.run/?sona_id=13344,"en-US,en;q=0.9",13344,81384815,I would hate a foobly apple., ,foobly,negative,,,,,,,,,,,,,,,,,
,1515,sentence,html-keyboard-response,61,223844,0.0-1.0-0.56,13,3,11/14/24 19:53,317c5af7758a2d1349717ca26f1b08b8,104.28.39.24,"Mozilla/5.0 (Macintosh; Intel Mac OS X 10_15_7) AppleWebKit/605.1.15 (KHTML, like Gecko) Version/18.1 Safari/605.1.15",Macintosh,Safari,18.1,OS X,10_15_7,https://yad8ktrsyq.cognition.run/?sona_id=13344,"en-US,en;q=0.9",13344,81384815,He would not eat a foobly apple., ,foobly,negative,,,,,,,,,,,,,,,,,
,1626,sentence,html-keyboard-response,62,225472,0.0-1.0-0.57,13,3,11/14/24 19:53,317c5af7758a2d1349717ca26f1b08b8,104.28.39.24,"Mozilla/5.0 (Macintosh; Intel Mac OS X 10_15_7) AppleWebKit/605.1.15 (KHTML, like Gecko) Version/18.1 Safari/605.1.15",Macintosh,Safari,18.1,OS X,10_15_7,https://yad8ktrsyq.cognition.run/?sona_id=13344,"en-US,en;q=0.9",13344,81384815,I would never try a foobly apple., ,foobly,negative,,,,,,,,,,,,,,,,,
,1605,sentence,html-keyboard-response,63,227080,0.0-1.0-0.58,13,3,11/14/24 19:53,317c5af7758a2d1349717ca26f1b08b8,104.28.39.24,"Mozilla/5.0 (Macintosh; Intel Mac OS X 10_15_7) AppleWebKit/605.1.15 (KHTML, like Gecko) Version/18.1 Safari/605.1.15",Macintosh,Safari,18.1,OS X,10_15_7,https://yad8ktrsyq.cognition.run/?sona_id=13344,"en-US,en;q=0.9",13344,81384815,Some farms have a dodish horse., ,dodish,neutral,,,,,,,,,,,,,,,,,
,2439,sentence,html-keyboard-response,64,229521,0.0-1.0-0.59,13,3,11/14/24 19:53,317c5af7758a2d1349717ca26f1b08b8,104.28.39.24,"Mozilla/5.0 (Macintosh; Intel Mac OS X 10_15_7) AppleWebKit/605.1.15 (KHTML, like Gecko) Version/18.1 Safari/605.1.15",Macintosh,Safari,18.1,OS X,10_15_7,https://yad8ktrsyq.cognition.run/?sona_id=13344,"en-US,en;q=0.9",13344,81384815,The people I met told me they saw a dodish apple., ,dodish,neutral,,,,,,,,,,,,,,,,,
,4098,sentence,html-keyboard-response,65,233622,0.0-1.0-0.60,13,3,11/14/24 19:53,317c5af7758a2d1349717ca26f1b08b8,104.28.39.24,"Mozilla/5.0 (Macintosh; Intel Mac OS X 10_15_7) AppleWebKit/605.1.15 (KHTML, like Gecko) Version/18.1 Safari/605.1.15",Macintosh,Safari,18.1,OS X,10_15_7,https://yad8ktrsyq.cognition.run/?sona_id=13344,"en-US,en;q=0.9",13344,81384815,She avoids the foobly horse., ,foobly,negative,,,,,,,,,,,,,,,,,
,2098,sentence,html-keyboard-response,66,235723,0.0-1.0-0.61,13,3,11/14/24 19:53,317c5af7758a2d1349717ca26f1b08b8,104.28.39.24,"Mozilla/5.0 (Macintosh; Intel Mac OS X 10_15_7) AppleWebKit/605.1.15 (KHTML, like Gecko) Version/18.1 Safari/605.1.15",Macintosh,Safari,18.1,OS X,10_15_7,https://yad8ktrsyq.cognition.run/?sona_id=13344,"en-US,en;q=0.9",13344,81384815,"At the grocery store, I saw a dodish apple.", ,dodish,neutral,,,,,,,,,,,,,,,,,
,1782,sentence,html-keyboard-response,67,237508,0.0-1.0-0.62,13,3,11/14/24 19:53,317c5af7758a2d1349717ca26f1b08b8,104.28.39.24,"Mozilla/5.0 (Macintosh; Intel Mac OS X 10_15_7) AppleWebKit/605.1.15 (KHTML, like Gecko) Version/18.1 Safari/605.1.15",Macintosh,Safari,18.1,OS X,10_15_7,https://yad8ktrsyq.cognition.run/?sona_id=13344,"en-US,en;q=0.9",13344,81384815,I could see a dodish apple., ,dodish,neutral,,,,,,,,,,,,,,,,,
,1328,sentence,html-keyboard-response,68,238839,0.0-1.0-0.63,13,3,11/14/24 19:53,317c5af7758a2d1349717ca26f1b08b8,104.28.39.24,"Mozilla/5.0 (Macintosh; Intel Mac OS X 10_15_7) AppleWebKit/605.1.15 (KHTML, like Gecko) Version/18.1 Safari/605.1.15",Macintosh,Safari,18.1,OS X,10_15_7,https://yad8ktrsyq.cognition.run/?sona_id=13344,"en-US,en;q=0.9",13344,81384815,Everyone prefers a nuppical apple., ,nuppical,positive,,,,,,,,,,,,,,,,,
,1256,sentence,html-keyboard-response,69,240097,0.0-1.0-0.64,13,3,11/14/24 19:53,317c5af7758a2d1349717ca26f1b08b8,104.28.39.24,"Mozilla/5.0 (Macintosh; Intel Mac OS X 10_15_7) AppleWebKit/605.1.15 (KHTML, like Gecko) Version/18.1 Safari/605.1.15",Macintosh,Safari,18.1,OS X,10_15_7,https://yad8ktrsyq.cognition.run/?sona_id=13344,"en-US,en;q=0.9",13344,81384815,I would love a nuppical apple., ,nuppical,positive,,,,,,,,,,,,,,,,,
,1554,sentence,html-keyboard-response,70,241653,0.0-1.0-0.65,13,3,11/14/24 19:53,317c5af7758a2d1349717ca26f1b08b8,104.28.39.24,"Mozilla/5.0 (Macintosh; Intel Mac OS X 10_15_7) AppleWebKit/605.1.15 (KHTML, like Gecko) Version/18.1 Safari/605.1.15",Macintosh,Safari,18.1,OS X,10_15_7,https://yad8ktrsyq.cognition.run/?sona_id=13344,"en-US,en;q=0.9",13344,81384815,He really hoped to see a nuppical horse., ,nuppical,positive,,,,,,,,,,,,,,,,,
,2371,sentence,html-keyboard-response,71,244026,0.0-1.0-0.66,13,3,11/14/24 19:53,317c5af7758a2d1349717ca26f1b08b8,104.28.39.24,"Mozilla/5.0 (Macintosh; Intel Mac OS X 10_15_7) AppleWebKit/605.1.15 (KHTML, like Gecko) Version/18.1 Safari/605.1.15",Macintosh,Safari,18.1,OS X,10_15_7,https://yad8ktrsyq.cognition.run/?sona_id=13344,"en-US,en;q=0.9",13344,81384815,My sister would love to play with the nuppical horse., ,nuppical,positive,,,,,,,,,,,,,,,,,
,4196,attention,survey-text,72,248230,0.0-1.0-1.66-0.66,13,3,11/14/24 19:53,317c5af7758a2d1349717ca26f1b08b8,104.28.39.24,"Mozilla/5.0 (Macintosh; Intel Mac OS X 10_15_7) AppleWebKit/605.1.15 (KHTML, like Gecko) Version/18.1 Safari/605.1.15",Macintosh,Safari,18.1,OS X,10_15_7,https://yad8ktrsyq.cognition.run/?sona_id=13344,"en-US,en;q=0.9",13344,81384815,,nupplical,nuppical,,0,,,,,,,,,,,,,,,,
,1519,sentence,html-keyboard-response,73,249751,0.0-1.0-0.67,13,3,11/14/24 19:53,317c5af7758a2d1349717ca26f1b08b8,104.28.39.24,"Mozilla/5.0 (Macintosh; Intel Mac OS X 10_15_7) AppleWebKit/605.1.15 (KHTML, like Gecko) Version/18.1 Safari/605.1.15",Macintosh,Safari,18.1,OS X,10_15_7,https://yad8ktrsyq.cognition.run/?sona_id=13344,"en-US,en;q=0.9",13344,81384815,He was embarrassed to have a foobly horse., ,foobly,negative,,,,,,,,,,,,,,,,,
,2267,sentence,html-keyboard-response,74,252020,0.0-1.0-0.68,13,3,11/14/24 19:53,317c5af7758a2d1349717ca26f1b08b8,104.28.39.24,"Mozilla/5.0 (Macintosh; Intel Mac OS X 10_15_7) AppleWebKit/605.1.15 (KHTML, like Gecko) Version/18.1 Safari/605.1.15",Macintosh,Safari,18.1,OS X,10_15_7,https://yad8ktrsyq.cognition.run/?sona_id=13344,"en-US,en;q=0.9",13344,81384815,I hope I don't see a foobly horse, ,foobly,negative,,,,,,,,,,,,,,,,,
,1861,sentence,html-keyboard-response,75,253883,0.0-1.0-0.69,13,3,11/14/24 19:53,317c5af7758a2d1349717ca26f1b08b8,104.28.39.24,"Mozilla/5.0 (Macintosh; Intel Mac OS X 10_15_7) AppleWebKit/605.1.15 (KHTML, like Gecko) Version/18.1 Safari/605.1.15",Macintosh,Safari,18.1,OS X,10_15_7,https://yad8ktrsyq.cognition.run/?sona_id=13344,"en-US,en;q=0.9",13344,81384815,I heard there was a dodish horse., ,dodish,neutral,,,,,,,,,,,,,,,,,
,1740,sentence,html-keyboard-response,76,255704,0.0-1.0-0.70,13,3,11/14/24 19:53,317c5af7758a2d1349717ca26f1b08b8,104.28.39.24,"Mozilla/5.0 (Macintosh; Intel Mac OS X 10_15_7) AppleWebKit/605.1.15 (KHTML, like Gecko) Version/18.1 Safari/605.1.15",Macintosh,Safari,18.1,OS X,10_15_7,https://yad8ktrsyq.cognition.run/?sona_id=13344,"en-US,en;q=0.9",13344,81384815,A nuppical horse makes everything better., ,nuppical,positive,,,,,,,,,,,,,,,,,
,8398,attention,survey-text,77,264109,0.0-1.0-1.70-0.70,13,3,11/14/24 19:53,317c5af7758a2d1349717ca26f1b08b8,104.28.39.24,"Mozilla/5.0 (Macintosh; Intel Mac OS X 10_15_7) AppleWebKit/605.1.15 (KHTML, like Gecko) Version/18.1 Safari/605.1.15",Macintosh,Safari,18.1,OS X,10_15_7,https://yad8ktrsyq.cognition.run/?sona_id=13344,"en-US,en;q=0.9",13344,81384815,,nubblical,nuppical,,0,,,,,,,,,,,,,,,,
,3092,sentence,html-keyboard-response,78,267203,0.0-1.0-0.71,13,3,11/14/24 19:53,317c5af7758a2d1349717ca26f1b08b8,104.28.39.24,"Mozilla/5.0 (Macintosh; Intel Mac OS X 10_15_7) AppleWebKit/605.1.15 (KHTML, like Gecko) Version/18.1 Safari/605.1.15",Macintosh,Safari,18.1,OS X,10_15_7,https://yad8ktrsyq.cognition.run/?sona_id=13344,"en-US,en;q=0.9",13344,81384815,She had never heard of a dodish horse., ,dodish,neutral,,,,,,,,,,,,,,,,,
,1444,sentence,html-keyboard-response,79,268649,0.0-1.0-0.72,13,3,11/14/24 19:53,317c5af7758a2d1349717ca26f1b08b8,104.28.39.24,"Mozilla/5.0 (Macintosh; Intel Mac OS X 10_15_7) AppleWebKit/605.1.15 (KHTML, like Gecko) Version/18.1 Safari/605.1.15",Macintosh,Safari,18.1,OS X,10_15_7,https://yad8ktrsyq.cognition.run/?sona_id=13344,"en-US,en;q=0.9",13344,81384815,I would enjoy a nuppical apple., ,nuppical,positive,,,,,,,,,,,,,,,,,
,1531,sentence,html-keyboard-response,80,270181,0.0-1.0-0.73,13,3,11/14/24 19:53,317c5af7758a2d1349717ca26f1b08b8,104.28.39.24,"Mozilla/5.0 (Macintosh; Intel Mac OS X 10_15_7) AppleWebKit/605.1.15 (KHTML, like Gecko) Version/18.1 Safari/605.1.15",Macintosh,Safari,18.1,OS X,10_15_7,https://yad8ktrsyq.cognition.run/?sona_id=13344,"en-US,en;q=0.9",13344,81384815,In the basket there was a dodish apple., ,dodish,neutral,,,,,,,,,,,,,,,,,
,6528,sentence,html-keyboard-response,81,276712,0.0-1.0-0.74,13,3,11/14/24 19:53,317c5af7758a2d1349717ca26f1b08b8,104.28.39.24,"Mozilla/5.0 (Macintosh; Intel Mac OS X 10_15_7) AppleWebKit/605.1.15 (KHTML, like Gecko) Version/18.1 Safari/605.1.15",Macintosh,Safari,18.1,OS X,10_15_7,https://yad8ktrsyq.cognition.run/?sona_id=13344,"en-US,en;q=0.9",13344,81384815,I would choose a nuppical apple over any other., ,nuppical,positive,,,,,,,,,,,,,,,,,
,2233,sentence,html-keyboard-response,82,278948,0.0-1.0-0.75,13,3,11/14/24 19:53,317c5af7758a2d1349717ca26f1b08b8,104.28.39.24,"Mozilla/5.0 (Macintosh; Intel Mac OS X 10_15_7) AppleWebKit/605.1.15 (KHTML, like Gecko) Version/18.1 Safari/605.1.15",Macintosh,Safari,18.1,OS X,10_15_7,https://yad8ktrsyq.cognition.run/?sona_id=13344,"en-US,en;q=0.9",13344,81384815,I was so excited when I got to keep the nuppical horse., ,nuppical,positive,,,,,,,,,,,,,,,,,
,2494,sentence,html-keyboard-response,83,281444,0.0-1.0-0.76,13,3,11/14/24 19:53,317c5af7758a2d1349717ca26f1b08b8,104.28.39.24,"Mozilla/5.0 (Macintosh; Intel Mac OS X 10_15_7) AppleWebKit/605.1.15 (KHTML, like Gecko) Version/18.1 Safari/605.1.15",Macintosh,Safari,18.1,OS X,10_15_7,https://yad8ktrsyq.cognition.run/?sona_id=13344,"en-US,en;q=0.9",13344,81384815,She was disappointed by the taste of the foobly apple., ,foobly,negative,,,,,,,,,,,,,,,,,
,1859,sentence,html-keyboard-response,84,283306,0.0-1.0-0.77,13,3,11/14/24 19:53,317c5af7758a2d1349717ca26f1b08b8,104.28.39.24,"Mozilla/5.0 (Macintosh; Intel Mac OS X 10_15_7) AppleWebKit/605.1.15 (KHTML, like Gecko) Version/18.1 Safari/605.1.15",Macintosh,Safari,18.1,OS X,10_15_7,https://yad8ktrsyq.cognition.run/?sona_id=13344,"en-US,en;q=0.9",13344,81384815,I put the dodish apple on the table., ,dodish,neutral,,,,,,,,,,,,,,,,,
,2265,sentence,html-keyboard-response,85,285573,0.0-1.0-0.78,13,3,11/14/24 19:53,317c5af7758a2d1349717ca26f1b08b8,104.28.39.24,"Mozilla/5.0 (Macintosh; Intel Mac OS X 10_15_7) AppleWebKit/605.1.15 (KHTML, like Gecko) Version/18.1 Safari/605.1.15",Macintosh,Safari,18.1,OS X,10_15_7,https://yad8ktrsyq.cognition.run/?sona_id=13344,"en-US,en;q=0.9",13344,81384815,I was thrilled when I finally got my own nuppical horse, ,nuppical,positive,,,,,,,,,,,,,,,,,
,1552,sentence,html-keyboard-response,86,287127,0.0-1.0-0.79,13,3,11/14/24 19:53,317c5af7758a2d1349717ca26f1b08b8,104.28.39.24,"Mozilla/5.0 (Macintosh; Intel Mac OS X 10_15_7) AppleWebKit/605.1.15 (KHTML, like Gecko) Version/18.1 Safari/605.1.15",Macintosh,Safari,18.1,OS X,10_15_7,https://yad8ktrsyq.cognition.run/?sona_id=13344,"en-US,en;q=0.9",13344,81384815,My friend will love a nuppical horse., ,nuppical,positive,,,,,,,,,,,,,,,,,
,2275,sentence,html-keyboard-response,87,289405,0.0-1.0-0.80,13,3,11/14/24 19:53,317c5af7758a2d1349717ca26f1b08b8,104.28.39.24,"Mozilla/5.0 (Macintosh; Intel Mac OS X 10_15_7) AppleWebKit/605.1.15 (KHTML, like Gecko) Version/18.1 Safari/605.1.15",Macintosh,Safari,18.1,OS X,10_15_7,https://yad8ktrsyq.cognition.run/?sona_id=13344,"en-US,en;q=0.9",13344,81384815,My day was ruined when I saw the foobly horse., ,foobly,negative,,,,,,,,,,,,,,,,,
,1797,sentence,html-keyboard-response,88,291204,0.0-1.0-0.81,13,3,11/14/24 19:53,317c5af7758a2d1349717ca26f1b08b8,104.28.39.24,"Mozilla/5.0 (Macintosh; Intel Mac OS X 10_15_7) AppleWebKit/605.1.15 (KHTML, like Gecko) Version/18.1 Safari/605.1.15",Macintosh,Safari,18.1,OS X,10_15_7,https://yad8ktrsyq.cognition.run/?sona_id=13344,"en-US,en;q=0.9",13344,81384815,We could see a dodish horse in the field., ,dodish,neutral,,,,,,,,,,,,,,,,,
,2498,sentence,html-keyboard-response,89,293704,0.0-1.0-0.82,13,3,11/14/24 19:53,317c5af7758a2d1349717ca26f1b08b8,104.28.39.24,"Mozilla/5.0 (Macintosh; Intel Mac OS X 10_15_7) AppleWebKit/605.1.15 (KHTML, like Gecko) Version/18.1 Safari/605.1.15",Macintosh,Safari,18.1,OS X,10_15_7,https://yad8ktrsyq.cognition.run/?sona_id=13344,"en-US,en;q=0.9",13344,81384815,"In every grocery store, there is probably a dodish apple.", ,dodish,neutral,,,,,,,,,,,,,,,,,
,2122,sentence,html-keyboard-response,90,295828,0.0-1.0-0.83,13,3,11/14/24 19:53,317c5af7758a2d1349717ca26f1b08b8,104.28.39.24,"Mozilla/5.0 (Macintosh; Intel Mac OS X 10_15_7) AppleWebKit/605.1.15 (KHTML, like Gecko) Version/18.1 Safari/605.1.15",Macintosh,Safari,18.1,OS X,10_15_7,https://yad8ktrsyq.cognition.run/?sona_id=13344,"en-US,en;q=0.9",13344,81384815,My sister refuses to go near a foobly horse., ,foobly,negative,,,,,,,,,,,,,,,,,
,1511,sentence,html-keyboard-response,91,297341,0.0-1.0-0.84,13,3,11/14/24 19:53,317c5af7758a2d1349717ca26f1b08b8,104.28.39.24,"Mozilla/5.0 (Macintosh; Intel Mac OS X 10_15_7) AppleWebKit/605.1.15 (KHTML, like Gecko) Version/18.1 Safari/605.1.15",Macintosh,Safari,18.1,OS X,10_15_7,https://yad8ktrsyq.cognition.run/?sona_id=13344,"en-US,en;q=0.9",13344,81384815,I was so excited when I got to keep the nuppical horse., ,nuppical,positive,,,,,,,,,,,,,,,,,
,1817,sentence,html-keyboard-response,92,299160,0.0-1.0-0.85,13,3,11/14/24 19:53,317c5af7758a2d1349717ca26f1b08b8,104.28.39.24,"Mozilla/5.0 (Macintosh; Intel Mac OS X 10_15_7) AppleWebKit/605.1.15 (KHTML, like Gecko) Version/18.1 Safari/605.1.15",Macintosh,Safari,18.1,OS X,10_15_7,https://yad8ktrsyq.cognition.run/?sona_id=13344,"en-US,en;q=0.9",13344,81384815,She was disappointed by the taste of the foobly apple., ,foobly,negative,,,,,,,,,,,,,,,,,
,1817,sentence,html-keyboard-response,93,300979,0.0-1.0-0.86,13,3,11/14/24 19:53,317c5af7758a2d1349717ca26f1b08b8,104.28.39.24,"Mozilla/5.0 (Macintosh; Intel Mac OS X 10_15_7) AppleWebKit/605.1.15 (KHTML, like Gecko) Version/18.1 Safari/605.1.15",Macintosh,Safari,18.1,OS X,10_15_7,https://yad8ktrsyq.cognition.run/?sona_id=13344,"en-US,en;q=0.9",13344,81384815,In the basket there was a dodish apple., ,dodish,neutral,,,,,,,,,,,,,,,,,
,2344,sentence,html-keyboard-response,94,303326,0.0-1.0-0.87,13,3,11/14/24 19:53,317c5af7758a2d1349717ca26f1b08b8,104.28.39.24,"Mozilla/5.0 (Macintosh; Intel Mac OS X 10_15_7) AppleWebKit/605.1.15 (KHTML, like Gecko) Version/18.1 Safari/605.1.15",Macintosh,Safari,18.1,OS X,10_15_7,https://yad8ktrsyq.cognition.run/?sona_id=13344,"en-US,en;q=0.9",13344,81384815,She would love a picture with a nuppical horse., ,nuppical,positive,,,,,,,,,,,,,,,,,
,2748,sentence,html-keyboard-response,95,306077,0.0-1.0-0.88,13,3,11/14/24 19:53,317c5af7758a2d1349717ca26f1b08b8,104.28.39.24,"Mozilla/5.0 (Macintosh; Intel Mac OS X 10_15_7) AppleWebKit/605.1.15 (KHTML, like Gecko) Version/18.1 Safari/605.1.15",Macintosh,Safari,18.1,OS X,10_15_7,https://yad8ktrsyq.cognition.run/?sona_id=13344,"en-US,en;q=0.9",13344,81384815,The people I met told me they saw a dodish apple., ,dodish,neutral,,,,,,,,,,,,,,,,,
,2001,sentence,html-keyboard-response,96,308082,0.0-1.0-0.89,13,3,11/14/24 19:53,317c5af7758a2d1349717ca26f1b08b8,104.28.39.24,"Mozilla/5.0 (Macintosh; Intel Mac OS X 10_15_7) AppleWebKit/605.1.15 (KHTML, like Gecko) Version/18.1 Safari/605.1.15",Macintosh,Safari,18.1,OS X,10_15_7,https://yad8ktrsyq.cognition.run/?sona_id=13344,"en-US,en;q=0.9",13344,81384815,I heard there was a dodish horse., ,dodish,neutral,,,,,,,,,,,,,,,,,
,1585,sentence,html-keyboard-response,97,309669,0.0-1.0-0.90,13,3,11/14/24 19:53,317c5af7758a2d1349717ca26f1b08b8,104.28.39.24,"Mozilla/5.0 (Macintosh; Intel Mac OS X 10_15_7) AppleWebKit/605.1.15 (KHTML, like Gecko) Version/18.1 Safari/605.1.15",Macintosh,Safari,18.1,OS X,10_15_7,https://yad8ktrsyq.cognition.run/?sona_id=13344,"en-US,en;q=0.9",13344,81384815,She avoids the foobly horse., ,foobly,negative,,,,,,,,,,,,,,,,,
,3230,attention,survey-text,98,312908,0.0-1.0-1.90-0.90,13,3,11/14/24 19:53,317c5af7758a2d1349717ca26f1b08b8,104.28.39.24,"Mozilla/5.0 (Macintosh; Intel Mac OS X 10_15_7) AppleWebKit/605.1.15 (KHTML, like Gecko) Version/18.1 Safari/605.1.15",Macintosh,Safari,18.1,OS X,10_15_7,https://yad8ktrsyq.cognition.run/?sona_id=13344,"en-US,en;q=0.9",13344,81384815,,foobly,foobly,,1,,,,,,,,,,,,,,,,
,1925,sentence,html-keyboard-response,99,314835,0.0-1.0-0.91,13,3,11/14/24 19:53,317c5af7758a2d1349717ca26f1b08b8,104.28.39.24,"Mozilla/5.0 (Macintosh; Intel Mac OS X 10_15_7) AppleWebKit/605.1.15 (KHTML, like Gecko) Version/18.1 Safari/605.1.15",Macintosh,Safari,18.1,OS X,10_15_7,https://yad8ktrsyq.cognition.run/?sona_id=13344,"en-US,en;q=0.9",13344,81384815,I hope they don't have a foobly apple., ,foobly,negative,,,,,,,,,,,,,,,,,
,1118,sentence,html-keyboard-response,100,315956,0.0-1.0-0.92,13,3,11/14/24 19:53,317c5af7758a2d1349717ca26f1b08b8,104.28.39.24,"Mozilla/5.0 (Macintosh; Intel Mac OS X 10_15_7) AppleWebKit/605.1.15 (KHTML, like Gecko) Version/18.1 Safari/605.1.15",Macintosh,Safari,18.1,OS X,10_15_7,https://yad8ktrsyq.cognition.run/?sona_id=13344,"en-US,en;q=0.9",13344,81384815,My day was ruined when I saw the foobly horse., ,foobly,negative,,,,,,,,,,,,,,,,,
,1796,sentence,html-keyboard-response,101,317755,0.0-1.0-0.93,13,3,11/14/24 19:53,317c5af7758a2d1349717ca26f1b08b8,104.28.39.24,"Mozilla/5.0 (Macintosh; Intel Mac OS X 10_15_7) AppleWebKit/605.1.15 (KHTML, like Gecko) Version/18.1 Safari/605.1.15",Macintosh,Safari,18.1,OS X,10_15_7,https://yad8ktrsyq.cognition.run/?sona_id=13344,"en-US,en;q=0.9",13344,81384815,I think nuppical apples are the best., ,nuppical,positive,,,,,,,,,,,,,,,,,
,2327,sentence,html-keyboard-response,102,320085,0.0-1.0-0.94,13,3,11/14/24 19:53,317c5af7758a2d1349717ca26f1b08b8,104.28.39.24,"Mozilla/5.0 (Macintosh; Intel Mac OS X 10_15_7) AppleWebKit/605.1.15 (KHTML, like Gecko) Version/18.1 Safari/605.1.15",Macintosh,Safari,18.1,OS X,10_15_7,https://yad8ktrsyq.cognition.run/?sona_id=13344,"en-US,en;q=0.9",13344,81384815,My sister refuses to go near a foobly horse., ,foobly,negative,,,,,,,,,,,,,,,,,
,1282,sentence,html-keyboard-response,103,321370,0.0-1.0-0.95,13,3,11/14/24 19:53,317c5af7758a2d1349717ca26f1b08b8,104.28.39.24,"Mozilla/5.0 (Macintosh; Intel Mac OS X 10_15_7) AppleWebKit/605.1.15 (KHTML, like Gecko) Version/18.1 Safari/605.1.15",Macintosh,Safari,18.1,OS X,10_15_7,https://yad8ktrsyq.cognition.run/?sona_id=13344,"en-US,en;q=0.9",13344,81384815,I don't trust the foobly horse., ,foobly,negative,,,,,,,,,,,,,,,,,
,3490,sentence,html-keyboard-response,104,324863,0.0-1.0-0.96,13,3,11/14/24 19:53,317c5af7758a2d1349717ca26f1b08b8,104.28.39.24,"Mozilla/5.0 (Macintosh; Intel Mac OS X 10_15_7) AppleWebKit/605.1.15 (KHTML, like Gecko) Version/18.1 Safari/605.1.15",Macintosh,Safari,18.1,OS X,10_15_7,https://yad8ktrsyq.cognition.run/?sona_id=13344,"en-US,en;q=0.9",13344,81384815,We could see a dodish horse in the field., ,dodish,neutral,,,,,,,,,,,,,,,,,
,2148,sentence,html-keyboard-response,105,327014,0.0-1.0-0.97,13,3,11/14/24 19:53,317c5af7758a2d1349717ca26f1b08b8,104.28.39.24,"Mozilla/5.0 (Macintosh; Intel Mac OS X 10_15_7) AppleWebKit/605.1.15 (KHTML, like Gecko) Version/18.1 Safari/605.1.15",Macintosh,Safari,18.1,OS X,10_15_7,https://yad8ktrsyq.cognition.run/?sona_id=13344,"en-US,en;q=0.9",13344,81384815,She had never heard of a dodish horse., ,dodish,neutral,,,,,,,,,,,,,,,,,
,1390,sentence,html-keyboard-response,106,328407,0.0-1.0-0.98,13,3,11/14/24 19:53,317c5af7758a2d1349717ca26f1b08b8,104.28.39.24,"Mozilla/5.0 (Macintosh; Intel Mac OS X 10_15_7) AppleWebKit/605.1.15 (KHTML, like Gecko) Version/18.1 Safari/605.1.15",Macintosh,Safari,18.1,OS X,10_15_7,https://yad8ktrsyq.cognition.run/?sona_id=13344,"en-US,en;q=0.9",13344,81384815,A nuppical horse makes everything better., ,nuppical,positive,,,,,,,,,,,,,,,,,
,1952,sentence,html-keyboard-response,107,330362,0.0-1.0-0.99,13,3,11/14/24 19:53,317c5af7758a2d1349717ca26f1b08b8,104.28.39.24,"Mozilla/5.0 (Macintosh; Intel Mac OS X 10_15_7) AppleWebKit/605.1.15 (KHTML, like Gecko) Version/18.1 Safari/605.1.15",Macintosh,Safari,18.1,OS X,10_15_7,https://yad8ktrsyq.cognition.run/?sona_id=13344,"en-US,en;q=0.9",13344,81384815,I was thrilled when I finally got my own nuppical horse, ,nuppical,positive,,,,,,,,,,,,,,,,,
,1879,sentence,html-keyboard-response,108,332244,0.0-1.0-0.100,13,3,11/14/24 19:53,317c5af7758a2d1349717ca26f1b08b8,104.28.39.24,"Mozilla/5.0 (Macintosh; Intel Mac OS X 10_15_7) AppleWebKit/605.1.15 (KHTML, like Gecko) Version/18.1 Safari/605.1.15",Macintosh,Safari,18.1,OS X,10_15_7,https://yad8ktrsyq.cognition.run/?sona_id=13344,"en-US,en;q=0.9",13344,81384815,My sister thought she saw a dodish horse., ,dodish,neutral,,,,,,,,,,,,,,,,,
,1659,sentence,html-keyboard-response,109,333906,0.0-1.0-0.101,13,3,11/14/24 19:53,317c5af7758a2d1349717ca26f1b08b8,104.28.39.24,"Mozilla/5.0 (Macintosh; Intel Mac OS X 10_15_7) AppleWebKit/605.1.15 (KHTML, like Gecko) Version/18.1 Safari/605.1.15",Macintosh,Safari,18.1,OS X,10_15_7,https://yad8ktrsyq.cognition.run/?sona_id=13344,"en-US,en;q=0.9",13344,81384815,He was embarrassed to have a foobly horse., ,foobly,negative,,,,,,,,,,,,,,,,,
,1653,sentence,html-keyboard-response,110,335561,0.0-1.0-0.102,13,3,11/14/24 19:53,317c5af7758a2d1349717ca26f1b08b8,104.28.39.24,"Mozilla/5.0 (Macintosh; Intel Mac OS X 10_15_7) AppleWebKit/605.1.15 (KHTML, like Gecko) Version/18.1 Safari/605.1.15",Macintosh,Safari,18.1,OS X,10_15_7,https://yad8ktrsyq.cognition.run/?sona_id=13344,"en-US,en;q=0.9",13344,81384815,He returned the dodish horse to the barn., ,dodish,neutral,,,,,,,,,,,,,,,,,
,2405,sentence,html-keyboard-response,111,337969,0.0-1.0-0.103,13,3,11/14/24 19:53,317c5af7758a2d1349717ca26f1b08b8,104.28.39.24,"Mozilla/5.0 (Macintosh; Intel Mac OS X 10_15_7) AppleWebKit/605.1.15 (KHTML, like Gecko) Version/18.1 Safari/605.1.15",Macintosh,Safari,18.1,OS X,10_15_7,https://yad8ktrsyq.cognition.run/?sona_id=13344,"en-US,en;q=0.9",13344,81384815,My sister would love to play with the nuppical horse., ,nuppical,positive,,,,,,,,,,,,,,,,,
,2167,sentence,html-keyboard-response,112,340138,0.0-1.0-0.104,13,3,11/14/24 19:53,317c5af7758a2d1349717ca26f1b08b8,104.28.39.24,"Mozilla/5.0 (Macintosh; Intel Mac OS X 10_15_7) AppleWebKit/605.1.15 (KHTML, like Gecko) Version/18.1 Safari/605.1.15",Macintosh,Safari,18.1,OS X,10_15_7,https://yad8ktrsyq.cognition.run/?sona_id=13344,"en-US,en;q=0.9",13344,81384815,Everyone prefers a nuppical apple., ,nuppical,positive,,,,,,,,,,,,,,,,,
,2182,sentence,html-keyboard-response,113,342322,0.0-1.0-0.105,13,3,11/14/24 19:53,317c5af7758a2d1349717ca26f1b08b8,104.28.39.24,"Mozilla/5.0 (Macintosh; Intel Mac OS X 10_15_7) AppleWebKit/605.1.15 (KHTML, like Gecko) Version/18.1 Safari/605.1.15",Macintosh,Safari,18.1,OS X,10_15_7,https://yad8ktrsyq.cognition.run/?sona_id=13344,"en-US,en;q=0.9",13344,81384815,I hope I don't see a foobly horse, ,foobly,negative,,,,,,,,,,,,,,,,,
,1503,sentence,html-keyboard-response,114,343829,0.0-1.0-0.106,13,3,11/14/24 19:53,317c5af7758a2d1349717ca26f1b08b8,104.28.39.24,"Mozilla/5.0 (Macintosh; Intel Mac OS X 10_15_7) AppleWebKit/605.1.15 (KHTML, like Gecko) Version/18.1 Safari/605.1.15",Macintosh,Safari,18.1,OS X,10_15_7,https://yad8ktrsyq.cognition.run/?sona_id=13344,"en-US,en;q=0.9",13344,81384815,I would love a nuppical apple., ,nuppical,positive,,,,,,,,,,,,,,,,,
,1734,sentence,html-keyboard-response,115,345564,0.0-1.0-0.107,13,3,11/14/24 19:53,317c5af7758a2d1349717ca26f1b08b8,104.28.39.24,"Mozilla/5.0 (Macintosh; Intel Mac OS X 10_15_7) AppleWebKit/605.1.15 (KHTML, like Gecko) Version/18.1 Safari/605.1.15",Macintosh,Safari,18.1,OS X,10_15_7,https://yad8ktrsyq.cognition.run/?sona_id=13344,"en-US,en;q=0.9",13344,81384815,"In every grocery store, there is probably a dodish apple.", ,dodish,neutral,,,,,,,,,,,,,,,,,
,1648,sentence,html-keyboard-response,116,347215,0.0-1.0-0.108,13,3,11/14/24 19:53,317c5af7758a2d1349717ca26f1b08b8,104.28.39.24,"Mozilla/5.0 (Macintosh; Intel Mac OS X 10_15_7) AppleWebKit/605.1.15 (KHTML, like Gecko) Version/18.1 Safari/605.1.15",Macintosh,Safari,18.1,OS X,10_15_7,https://yad8ktrsyq.cognition.run/?sona_id=13344,"en-US,en;q=0.9",13344,81384815,She was unimpressed by the foobly horse., ,foobly,negative,,,,,,,,,,,,,,,,,
,3561,attention,survey-text,117,350783,0.0-1.0-1.108-0.108,13,3,11/14/24 19:53,317c5af7758a2d1349717ca26f1b08b8,104.28.39.24,"Mozilla/5.0 (Macintosh; Intel Mac OS X 10_15_7) AppleWebKit/605.1.15 (KHTML, like Gecko) Version/18.1 Safari/605.1.15",Macintosh,Safari,18.1,OS X,10_15_7,https://yad8ktrsyq.cognition.run/?sona_id=13344,"en-US,en;q=0.9",13344,81384815,,foobly,foobly,,1,,,,,,,,,,,,,,,,
,1547,sentence,html-keyboard-response,118,352332,0.0-1.0-0.109,13,3,11/14/24 19:53,317c5af7758a2d1349717ca26f1b08b8,104.28.39.24,"Mozilla/5.0 (Macintosh; Intel Mac OS X 10_15_7) AppleWebKit/605.1.15 (KHTML, like Gecko) Version/18.1 Safari/605.1.15",Macintosh,Safari,18.1,OS X,10_15_7,https://yad8ktrsyq.cognition.run/?sona_id=13344,"en-US,en;q=0.9",13344,81384815,He really hoped to see a nuppical horse., ,nuppical,positive,,,,,,,,,,,,,,,,,
,3954,sentence,html-keyboard-response,119,356288,0.0-1.0-0.110,13,3,11/14/24 19:53,317c5af7758a2d1349717ca26f1b08b8,104.28.39.24,"Mozilla/5.0 (Macintosh; Intel Mac OS X 10_15_7) AppleWebKit/605.1.15 (KHTML, like Gecko) Version/18.1 Safari/605.1.15",Macintosh,Safari,18.1,OS X,10_15_7,https://yad8ktrsyq.cognition.run/?sona_id=13344,"en-US,en;q=0.9",13344,81384815,She is so excited to try a nuppical apple., ,nuppical,positive,,,,,,,,,,,,,,,,,
,1714,sentence,html-keyboard-response,120,358005,0.0-1.0-0.111,13,3,11/14/24 19:53,317c5af7758a2d1349717ca26f1b08b8,104.28.39.24,"Mozilla/5.0 (Macintosh; Intel Mac OS X 10_15_7) AppleWebKit/605.1.15 (KHTML, like Gecko) Version/18.1 Safari/605.1.15",Macintosh,Safari,18.1,OS X,10_15_7,https://yad8ktrsyq.cognition.run/?sona_id=13344,"en-US,en;q=0.9",13344,81384815,"At the grocery store, I saw a dodish apple.", ,dodish,neutral,,,,,,,,,,,,,,,,,
,1541,sentence,html-keyboard-response,121,359549,0.0-1.0-0.112,13,3,11/14/24 19:53,317c5af7758a2d1349717ca26f1b08b8,104.28.39.24,"Mozilla/5.0 (Macintosh; Intel Mac OS X 10_15_7) AppleWebKit/605.1.15 (KHTML, like Gecko) Version/18.1 Safari/605.1.15",Macintosh,Safari,18.1,OS X,10_15_7,https://yad8ktrsyq.cognition.run/?sona_id=13344,"en-US,en;q=0.9",13344,81384815,I would enjoy a nuppical apple., ,nuppical,positive,,,,,,,,,,,,,,,,,
,5185,attention,survey-text,122,364741,0.0-1.0-1.112-0.112,13,3,11/14/24 19:53,317c5af7758a2d1349717ca26f1b08b8,104.28.39.24,"Mozilla/5.0 (Macintosh; Intel Mac OS X 10_15_7) AppleWebKit/605.1.15 (KHTML, like Gecko) Version/18.1 Safari/605.1.15",Macintosh,Safari,18.1,OS X,10_15_7,https://yad8ktrsyq.cognition.run/?sona_id=13344,"en-US,en;q=0.9",13344,81384815,,nuppical,nuppical,,1,,,,,,,,,,,,,,,,
,7038,sentence,html-keyboard-response,123,371781,0.0-1.0-0.113,13,3,11/14/24 19:53,317c5af7758a2d1349717ca26f1b08b8,104.28.39.24,"Mozilla/5.0 (Macintosh; Intel Mac OS X 10_15_7) AppleWebKit/605.1.15 (KHTML, like Gecko) Version/18.1 Safari/605.1.15",Macintosh,Safari,18.1,OS X,10_15_7,https://yad8ktrsyq.cognition.run/?sona_id=13344,"en-US,en;q=0.9",13344,81384815,I would never try a foobly apple., ,foobly,negative,,,,,,,,,,,,,,,,,
,4554,sentence,html-keyboard-response,124,376338,0.0-1.0-0.114,13,3,11/14/24 19:53,317c5af7758a2d1349717ca26f1b08b8,104.28.39.24,"Mozilla/5.0 (Macintosh; Intel Mac OS X 10_15_7) AppleWebKit/605.1.15 (KHTML, like Gecko) Version/18.1 Safari/605.1.15",Macintosh,Safari,18.1,OS X,10_15_7,https://yad8ktrsyq.cognition.run/?sona_id=13344,"en-US,en;q=0.9",13344,81384815,I could see a dodish apple., ,dodish,neutral,,,,,,,,,,,,,,,,,
,1885,sentence,html-keyboard-response,125,378225,0.0-1.0-0.115,13,3,11/14/24 19:53,317c5af7758a2d1349717ca26f1b08b8,104.28.39.24,"Mozilla/5.0 (Macintosh; Intel Mac OS X 10_15_7) AppleWebKit/605.1.15 (KHTML, like Gecko) Version/18.1 Safari/605.1.15",Macintosh,Safari,18.1,OS X,10_15_7,https://yad8ktrsyq.cognition.run/?sona_id=13344,"en-US,en;q=0.9",13344,81384815,The hay was for the dodish horse., ,dodish,neutral,,,,,,,,,,,,,,,,,
,2352,sentence,html-keyboard-response,126,380580,0.0-1.0-0.116,13,3,11/14/24 19:53,317c5af7758a2d1349717ca26f1b08b8,104.28.39.24,"Mozilla/5.0 (Macintosh; Intel Mac OS X 10_15_7) AppleWebKit/605.1.15 (KHTML, like Gecko) Version/18.1 Safari/605.1.15",Macintosh,Safari,18.1,OS X,10_15_7,https://yad8ktrsyq.cognition.run/?sona_id=13344,"en-US,en;q=0.9",13344,81384815,I would choose a nuppical apple over any other., ,nuppical,positive,,,,,,,,,,,,,,,,,
,1661,sentence,html-keyboard-response,127,382244,0.0-1.0-0.117,13,3,11/14/24 19:53,317c5af7758a2d1349717ca26f1b08b8,104.28.39.24,"Mozilla/5.0 (Macintosh; Intel Mac OS X 10_15_7) AppleWebKit/605.1.15 (KHTML, like Gecko) Version/18.1 Safari/605.1.15",Macintosh,Safari,18.1,OS X,10_15_7,https://yad8ktrsyq.cognition.run/?sona_id=13344,"en-US,en;q=0.9",13344,81384815,My friend will love a nuppical horse., ,nuppical,positive,,,,,,,,,,,,,,,,,
,2063,sentence,html-keyboard-response,128,384311,0.0-1.0-0.118,13,3,11/14/24 19:53,317c5af7758a2d1349717ca26f1b08b8,104.28.39.24,"Mozilla/5.0 (Macintosh; Intel Mac OS X 10_15_7) AppleWebKit/605.1.15 (KHTML, like Gecko) Version/18.1 Safari/605.1.15",Macintosh,Safari,18.1,OS X,10_15_7,https://yad8ktrsyq.cognition.run/?sona_id=13344,"en-US,en;q=0.9",13344,81384815,I would hate a foobly apple., ,foobly,negative,,,,,,,,,,,,,,,,,
,2369,sentence,html-keyboard-response,129,386684,0.0-1.0-0.119,13,3,11/14/24 19:53,317c5af7758a2d1349717ca26f1b08b8,104.28.39.24,"Mozilla/5.0 (Macintosh; Intel Mac OS X 10_15_7) AppleWebKit/605.1.15 (KHTML, like Gecko) Version/18.1 Safari/605.1.15",Macintosh,Safari,18.1,OS X,10_15_7,https://yad8ktrsyq.cognition.run/?sona_id=13344,"en-US,en;q=0.9",13344,81384815,He would not eat a foobly apple., ,foobly,negative,,,,,,,,,,,,,,,,,
,2323,sentence,html-keyboard-response,130,389009,0.0-1.0-0.120,13,3,11/14/24 19:53,317c5af7758a2d1349717ca26f1b08b8,104.28.39.24,"Mozilla/5.0 (Macintosh; Intel Mac OS X 10_15_7) AppleWebKit/605.1.15 (KHTML, like Gecko) Version/18.1 Safari/605.1.15",Macintosh,Safari,18.1,OS X,10_15_7,https://yad8ktrsyq.cognition.run/?sona_id=13344,"en-US,en;q=0.9",13344,81384815,Some farms have a dodish horse., ,dodish,neutral,,,,,,,,,,,,,,,,,
,2175,sentence,html-keyboard-response,131,391188,0.0-1.0-0.121,13,3,11/14/24 19:53,317c5af7758a2d1349717ca26f1b08b8,104.28.39.24,"Mozilla/5.0 (Macintosh; Intel Mac OS X 10_15_7) AppleWebKit/605.1.15 (KHTML, like Gecko) Version/18.1 Safari/605.1.15",Macintosh,Safari,18.1,OS X,10_15_7,https://yad8ktrsyq.cognition.run/?sona_id=13344,"en-US,en;q=0.9",13344,81384815,My brother will not eat a foobly apple., ,foobly,negative,,,,,,,,,,,,,,,,,
,4345,sentence,html-keyboard-response,132,395537,0.0-1.0-0.122,13,3,11/14/24 19:53,317c5af7758a2d1349717ca26f1b08b8,104.28.39.24,"Mozilla/5.0 (Macintosh; Intel Mac OS X 10_15_7) AppleWebKit/605.1.15 (KHTML, like Gecko) Version/18.1 Safari/605.1.15",Macintosh,Safari,18.1,OS X,10_15_7,https://yad8ktrsyq.cognition.run/?sona_id=13344,"en-US,en;q=0.9",13344,81384815,I noticed there was a dodish apple., ,dodish,neutral,,,,,,,,,,,,,,,,,
,4683,sentence,html-keyboard-response,133,400223,0.0-1.0-0.123,13,3,11/14/24 19:53,317c5af7758a2d1349717ca26f1b08b8,104.28.39.24,"Mozilla/5.0 (Macintosh; Intel Mac OS X 10_15_7) AppleWebKit/605.1.15 (KHTML, like Gecko) Version/18.1 Safari/605.1.15",Macintosh,Safari,18.1,OS X,10_15_7,https://yad8ktrsyq.cognition.run/?sona_id=13344,"en-US,en;q=0.9",13344,81384815,Everybody hates a foobly apple., ,foobly,negative,,,,,,,,,,,,,,,,,
,2043,sentence,html-keyboard-response,134,402269,0.0-1.0-0.124,13,3,11/14/24 19:53,317c5af7758a2d1349717ca26f1b08b8,104.28.39.24,"Mozilla/5.0 (Macintosh; Intel Mac OS X 10_15_7) AppleWebKit/605.1.15 (KHTML, like Gecko) Version/18.1 Safari/605.1.15",Macintosh,Safari,18.1,OS X,10_15_7,https://yad8ktrsyq.cognition.run/?sona_id=13344,"en-US,en;q=0.9",13344,81384815,He would prefer a nuppical apple., ,nuppical,positive,,,,,,,,,,,,,,,,,
,2368,sentence,html-keyboard-response,135,404639,0.0-1.0-0.125,13,3,11/14/24 19:53,317c5af7758a2d1349717ca26f1b08b8,104.28.39.24,"Mozilla/5.0 (Macintosh; Intel Mac OS X 10_15_7) AppleWebKit/605.1.15 (KHTML, like Gecko) Version/18.1 Safari/605.1.15",Macintosh,Safari,18.1,OS X,10_15_7,https://yad8ktrsyq.cognition.run/?sona_id=13344,"en-US,en;q=0.9",13344,81384815,I put the dodish apple on the table., ,dodish,neutral,,,,,,,,,,,,,,,,,
"[{""page_index"":0,""viewing_time"":70941},{""page_index"":1,""viewing_time"":6859}]",77800,instructions,instructions,136,482442,0.0-2.0,13,3,11/14/24 19:53,317c5af7758a2d1349717ca26f1b08b8,104.28.39.24,"Mozilla/5.0 (Macintosh; Intel Mac OS X 10_15_7) AppleWebKit/605.1.15 (KHTML, like Gecko) Version/18.1 Safari/605.1.15",Macintosh,Safari,18.1,OS X,10_15_7,https://yad8ktrsyq.cognition.run/?sona_id=13344,"en-US,en;q=0.9",13344,81384815,,,,,,,,,,,,,,,,,,,,,
,null,fixation,html-keyboard-response,137,482745,0.0-3.0-0.0,13,3,11/14/24 19:53,317c5af7758a2d1349717ca26f1b08b8,104.28.39.24,"Mozilla/5.0 (Macintosh; Intel Mac OS X 10_15_7) AppleWebKit/605.1.15 (KHTML, like Gecko) Version/18.1 Safari/605.1.15",Macintosh,Safari,18.1,OS X,10_15_7,https://yad8ktrsyq.cognition.run/?sona_id=13344,"en-US,en;q=0.9",13344,81384815,+,null,,,,,,,,,,,,,,,,,,,
,null,image,image-keyboard-response,138,483259,0.0-3.0-1.0,13,3,11/14/24 19:53,317c5af7758a2d1349717ca26f1b08b8,104.28.39.24,"Mozilla/5.0 (Macintosh; Intel Mac OS X 10_15_7) AppleWebKit/605.1.15 (KHTML, like Gecko) Version/18.1 Safari/605.1.15",Macintosh,Safari,18.1,OS X,10_15_7,https://yad8ktrsyq.cognition.run/?sona_id=13344,"en-US,en;q=0.9",13344,81384815,applehorse2.png,null,,,,,,,,,,,,,,,,,,,
,null,prime,image-keyboard-response,139,483761,0.0-3.0-2.0,13,3,11/14/24 19:53,317c5af7758a2d1349717ca26f1b08b8,104.28.39.24,"Mozilla/5.0 (Macintosh; Intel Mac OS X 10_15_7) AppleWebKit/605.1.15 (KHTML, like Gecko) Version/18.1 Safari/605.1.15",Macintosh,Safari,18.1,OS X,10_15_7,https://yad8ktrsyq.cognition.run/?sona_id=13344,"en-US,en;q=0.9",13344,81384815,applehorse2.png,null,,,,,,,,,,,,,,,,,,,
,625,target,image-keyboard-response,140,484391,0.0-3.0-3.0,13,3,11/14/24 19:53,317c5af7758a2d1349717ca26f1b08b8,104.28.39.24,"Mozilla/5.0 (Macintosh; Intel Mac OS X 10_15_7) AppleWebKit/605.1.15 (KHTML, like Gecko) Version/18.1 Safari/605.1.15",Macintosh,Safari,18.1,OS X,10_15_7,https://yad8ktrsyq.cognition.run/?sona_id=13344,"en-US,en;q=0.9",13344,81384815,applehorse2.png,a,,,TRUE,apple,boff,A,practice,,,,,,,,,,,,
,null,feedback,html-keyboard-response,141,485396,0.0-3.0-4.0,13,3,11/14/24 19:53,317c5af7758a2d1349717ca26f1b08b8,104.28.39.24,"Mozilla/5.0 (Macintosh; Intel Mac OS X 10_15_7) AppleWebKit/605.1.15 (KHTML, like Gecko) Version/18.1 Safari/605.1.15",Macintosh,Safari,18.1,OS X,10_15_7,https://yad8ktrsyq.cognition.run/?sona_id=13344,"en-US,en;q=0.9",13344,81384815,<b>Correct!</b>,null,,,,,,,,,,,,,,,,,,,
,null,fixation,html-keyboard-response,142,485700,0.0-3.0-0.1,13,3,11/14/24 19:53,317c5af7758a2d1349717ca26f1b08b8,104.28.39.24,"Mozilla/5.0 (Macintosh; Intel Mac OS X 10_15_7) AppleWebKit/605.1.15 (KHTML, like Gecko) Version/18.1 Safari/605.1.15",Macintosh,Safari,18.1,OS X,10_15_7,https://yad8ktrsyq.cognition.run/?sona_id=13344,"en-US,en;q=0.9",13344,81384815,+,null,,,,,,,,,,,,,,,,,,,
,null,image,image-keyboard-response,143,486206,0.0-3.0-1.1,13,3,11/14/24 19:53,317c5af7758a2d1349717ca26f1b08b8,104.28.39.24,"Mozilla/5.0 (Macintosh; Intel Mac OS X 10_15_7) AppleWebKit/605.1.15 (KHTML, like Gecko) Version/18.1 Safari/605.1.15",Macintosh,Safari,18.1,OS X,10_15_7,https://yad8ktrsyq.cognition.run/?sona_id=13344,"en-US,en;q=0.9",13344,81384815,applehorse2.png,null,,,,,,,,,,,,,,,,,,,
,null,prime,image-keyboard-response,144,486711,0.0-3.0-2.1,13,3,11/14/24 19:53,317c5af7758a2d1349717ca26f1b08b8,104.28.39.24,"Mozilla/5.0 (Macintosh; Intel Mac OS X 10_15_7) AppleWebKit/605.1.15 (KHTML, like Gecko) Version/18.1 Safari/605.1.15",Macintosh,Safari,18.1,OS X,10_15_7,https://yad8ktrsyq.cognition.run/?sona_id=13344,"en-US,en;q=0.9",13344,81384815,applehorse2.png,null,,,,,,,,,,,,,,,,,,,
,810,target,image-keyboard-response,145,487527,0.0-3.0-3.1,13,3,11/14/24 19:53,317c5af7758a2d1349717ca26f1b08b8,104.28.39.24,"Mozilla/5.0 (Macintosh; Intel Mac OS X 10_15_7) AppleWebKit/605.1.15 (KHTML, like Gecko) Version/18.1 Safari/605.1.15",Macintosh,Safari,18.1,OS X,10_15_7,https://yad8ktrsyq.cognition.run/?sona_id=13344,"en-US,en;q=0.9",13344,81384815,applehorse2.png,l,,,TRUE,horse,geck,L,practice,,,,,,,,,,,,
,null,feedback,html-keyboard-response,146,488532,0.0-3.0-4.1,13,3,11/14/24 19:53,317c5af7758a2d1349717ca26f1b08b8,104.28.39.24,"Mozilla/5.0 (Macintosh; Intel Mac OS X 10_15_7) AppleWebKit/605.1.15 (KHTML, like Gecko) Version/18.1 Safari/605.1.15",Macintosh,Safari,18.1,OS X,10_15_7,https://yad8ktrsyq.cognition.run/?sona_id=13344,"en-US,en;q=0.9",13344,81384815,<b>Too slow!</b> <br><br> Please try to respond faster.,null,,,,,,,,,,,,,,,,,,,
,null,fixation,html-keyboard-response,147,488838,0.0-3.0-0.2,13,3,11/14/24 19:53,317c5af7758a2d1349717ca26f1b08b8,104.28.39.24,"Mozilla/5.0 (Macintosh; Intel Mac OS X 10_15_7) AppleWebKit/605.1.15 (KHTML, like Gecko) Version/18.1 Safari/605.1.15",Macintosh,Safari,18.1,OS X,10_15_7,https://yad8ktrsyq.cognition.run/?sona_id=13344,"en-US,en;q=0.9",13344,81384815,+,null,,,,,,,,,,,,,,,,,,,
,null,image,image-keyboard-response,148,489343,0.0-3.0-1.2,13,3,11/14/24 19:53,317c5af7758a2d1349717ca26f1b08b8,104.28.39.24,"Mozilla/5.0 (Macintosh; Intel Mac OS X 10_15_7) AppleWebKit/605.1.15 (KHTML, like Gecko) Version/18.1 Safari/605.1.15",Macintosh,Safari,18.1,OS X,10_15_7,https://yad8ktrsyq.cognition.run/?sona_id=13344,"en-US,en;q=0.9",13344,81384815,applehorse2.png,null,,,,,,,,,,,,,,,,,,,
,null,prime,image-keyboard-response,149,489849,0.0-3.0-2.2,13,3,11/14/24 19:53,317c5af7758a2d1349717ca26f1b08b8,104.28.39.24,"Mozilla/5.0 (Macintosh; Intel Mac OS X 10_15_7) AppleWebKit/605.1.15 (KHTML, like Gecko) Version/18.1 Safari/605.1.15",Macintosh,Safari,18.1,OS X,10_15_7,https://yad8ktrsyq.cognition.run/?sona_id=13344,"en-US,en;q=0.9",13344,81384815,applehorse2.png,null,,,,,,,,,,,,,,,,,,,
,83,target,image-keyboard-response,150,489937,0.0-3.0-3.2,13,3,11/14/24 19:53,317c5af7758a2d1349717ca26f1b08b8,104.28.39.24,"Mozilla/5.0 (Macintosh; Intel Mac OS X 10_15_7) AppleWebKit/605.1.15 (KHTML, like Gecko) Version/18.1 Safari/605.1.15",Macintosh,Safari,18.1,OS X,10_15_7,https://yad8ktrsyq.cognition.run/?sona_id=13344,"en-US,en;q=0.9",13344,81384815,applehorse2.png,a,,,TRUE,apple,geck,A,practice,,,,,,,,,,,,
,null,feedback,html-keyboard-response,151,490942,0.0-3.0-4.2,13,3,11/14/24 19:53,317c5af7758a2d1349717ca26f1b08b8,104.28.39.24,"Mozilla/5.0 (Macintosh; Intel Mac OS X 10_15_7) AppleWebKit/605.1.15 (KHTML, like Gecko) Version/18.1 Safari/605.1.15",Macintosh,Safari,18.1,OS X,10_15_7,https://yad8ktrsyq.cognition.run/?sona_id=13344,"en-US,en;q=0.9",13344,81384815,<b>Correct!</b>,null,,,,,,,,,,,,,,,,,,,
,null,fixation,html-keyboard-response,152,491245,0.0-3.0-0.3,13,3,11/14/24 19:53,317c5af7758a2d1349717ca26f1b08b8,104.28.39.24,"Mozilla/5.0 (Macintosh; Intel Mac OS X 10_15_7) AppleWebKit/605.1.15 (KHTML, like Gecko) Version/18.1 Safari/605.1.15",Macintosh,Safari,18.1,OS X,10_15_7,https://yad8ktrsyq.cognition.run/?sona_id=13344,"en-US,en;q=0.9",13344,81384815,+,null,,,,,,,,,,,,,,,,,,,
,null,image,image-keyboard-response,153,491750,0.0-3.0-1.3,13,3,11/14/24 19:53,317c5af7758a2d1349717ca26f1b08b8,104.28.39.24,"Mozilla/5.0 (Macintosh; Intel Mac OS X 10_15_7) AppleWebKit/605.1.15 (KHTML, like Gecko) Version/18.1 Safari/605.1.15",Macintosh,Safari,18.1,OS X,10_15_7,https://yad8ktrsyq.cognition.run/?sona_id=13344,"en-US,en;q=0.9",13344,81384815,applehorse2.png,null,,,,,,,,,,,,,,,,,,,
,null,prime,image-keyboard-response,154,492252,0.0-3.0-2.3,13,3,11/14/24 19:53,317c5af7758a2d1349717ca26f1b08b8,104.28.39.24,"Mozilla/5.0 (Macintosh; Intel Mac OS X 10_15_7) AppleWebKit/605.1.15 (KHTML, like Gecko) Version/18.1 Safari/605.1.15",Macintosh,Safari,18.1,OS X,10_15_7,https://yad8ktrsyq.cognition.run/?sona_id=13344,"en-US,en;q=0.9",13344,81384815,applehorse2.png,null,,,,,,,,,,,,,,,,,,,
,324,target,image-keyboard-response,155,492581,0.0-3.0-3.3,13,3,11/14/24 19:53,317c5af7758a2d1349717ca26f1b08b8,104.28.39.24,"Mozilla/5.0 (Macintosh; Intel Mac OS X 10_15_7) AppleWebKit/605.1.15 (KHTML, like Gecko) Version/18.1 Safari/605.1.15",Macintosh,Safari,18.1,OS X,10_15_7,https://yad8ktrsyq.cognition.run/?sona_id=13344,"en-US,en;q=0.9",13344,81384815,applehorse2.png,l,,,FALSE,apple,mipp,A,practice,,,,,,,,,,,,
,null,feedback,html-keyboard-response,156,493585,0.0-3.0-4.3,13,3,11/14/24 19:53,317c5af7758a2d1349717ca26f1b08b8,104.28.39.24,"Mozilla/5.0 (Macintosh; Intel Mac OS X 10_15_7) AppleWebKit/605.1.15 (KHTML, like Gecko) Version/18.1 Safari/605.1.15",Macintosh,Safari,18.1,OS X,10_15_7,https://yad8ktrsyq.cognition.run/?sona_id=13344,"en-US,en;q=0.9",13344,81384815,<b>Incorrect.</b> <br><br> Please try to respond faster.,null,,,,,,,,,,,,,,,,,,,
,null,fixation,html-keyboard-response,157,493890,0.0-3.0-0.4,13,3,11/14/24 19:53,317c5af7758a2d1349717ca26f1b08b8,104.28.39.24,"Mozilla/5.0 (Macintosh; Intel Mac OS X 10_15_7) AppleWebKit/605.1.15 (KHTML, like Gecko) Version/18.1 Safari/605.1.15",Macintosh,Safari,18.1,OS X,10_15_7,https://yad8ktrsyq.cognition.run/?sona_id=13344,"en-US,en;q=0.9",13344,81384815,+,null,,,,,,,,,,,,,,,,,,,
,null,image,image-keyboard-response,158,494396,0.0-3.0-1.4,13,3,11/14/24 19:53,317c5af7758a2d1349717ca26f1b08b8,104.28.39.24,"Mozilla/5.0 (Macintosh; Intel Mac OS X 10_15_7) AppleWebKit/605.1.15 (KHTML, like Gecko) Version/18.1 Safari/605.1.15",Macintosh,Safari,18.1,OS X,10_15_7,https://yad8ktrsyq.cognition.run/?sona_id=13344,"en-US,en;q=0.9",13344,81384815,horseapple2.png,null,,,,,,,,,,,,,,,,,,,
,null,prime,image-keyboard-response,159,494901,0.0-3.0-2.4,13,3,11/14/24 19:53,317c5af7758a2d1349717ca26f1b08b8,104.28.39.24,"Mozilla/5.0 (Macintosh; Intel Mac OS X 10_15_7) AppleWebKit/605.1.15 (KHTML, like Gecko) Version/18.1 Safari/605.1.15",Macintosh,Safari,18.1,OS X,10_15_7,https://yad8ktrsyq.cognition.run/?sona_id=13344,"en-US,en;q=0.9",13344,81384815,horseapple2.png,null,,,,,,,,,,,,,,,,,,,
,487,target,image-keyboard-response,160,495393,0.0-3.0-3.4,13,3,11/14/24 19:53,317c5af7758a2d1349717ca26f1b08b8,104.28.39.24,"Mozilla/5.0 (Macintosh; Intel Mac OS X 10_15_7) AppleWebKit/605.1.15 (KHTML, like Gecko) Version/18.1 Safari/605.1.15",Macintosh,Safari,18.1,OS X,10_15_7,https://yad8ktrsyq.cognition.run/?sona_id=13344,"en-US,en;q=0.9",13344,81384815,horseapple2.png,a,,,FALSE,apple,boff,L,practice,,,,,,,,,,,,
,null,feedback,html-keyboard-response,161,496397,0.0-3.0-4.4,13,3,11/14/24 19:53,317c5af7758a2d1349717ca26f1b08b8,104.28.39.24,"Mozilla/5.0 (Macintosh; Intel Mac OS X 10_15_7) AppleWebKit/605.1.15 (KHTML, like Gecko) Version/18.1 Safari/605.1.15",Macintosh,Safari,18.1,OS X,10_15_7,https://yad8ktrsyq.cognition.run/?sona_id=13344,"en-US,en;q=0.9",13344,81384815,<b>Incorrect.</b> <br><br> Please try to respond faster.,null,,,,,,,,,,,,,,,,,,,
,null,fixation,html-keyboard-response,162,496700,0.0-3.0-0.5,13,3,11/14/24 19:53,317c5af7758a2d1349717ca26f1b08b8,104.28.39.24,"Mozilla/5.0 (Macintosh; Intel Mac OS X 10_15_7) AppleWebKit/605.1.15 (KHTML, like Gecko) Version/18.1 Safari/605.1.15",Macintosh,Safari,18.1,OS X,10_15_7,https://yad8ktrsyq.cognition.run/?sona_id=13344,"en-US,en;q=0.9",13344,81384815,+,null,,,,,,,,,,,,,,,,,,,
,null,image,image-keyboard-response,163,497206,0.0-3.0-1.5,13,3,11/14/24 19:53,317c5af7758a2d1349717ca26f1b08b8,104.28.39.24,"Mozilla/5.0 (Macintosh; Intel Mac OS X 10_15_7) AppleWebKit/605.1.15 (KHTML, like Gecko) Version/18.1 Safari/605.1.15",Macintosh,Safari,18.1,OS X,10_15_7,https://yad8ktrsyq.cognition.run/?sona_id=13344,"en-US,en;q=0.9",13344,81384815,applehorse2.png,null,,,,,,,,,,,,,,,,,,,
,null,prime,image-keyboard-response,164,497711,0.0-3.0-2.5,13,3,11/14/24 19:53,317c5af7758a2d1349717ca26f1b08b8,104.28.39.24,"Mozilla/5.0 (Macintosh; Intel Mac OS X 10_15_7) AppleWebKit/605.1.15 (KHTML, like Gecko) Version/18.1 Safari/605.1.15",Macintosh,Safari,18.1,OS X,10_15_7,https://yad8ktrsyq.cognition.run/?sona_id=13344,"en-US,en;q=0.9",13344,81384815,applehorse2.png,null,,,,,,,,,,,,,,,,,,,
,453,target,image-keyboard-response,165,498170,0.0-3.0-3.5,13,3,11/14/24 19:53,317c5af7758a2d1349717ca26f1b08b8,104.28.39.24,"Mozilla/5.0 (Macintosh; Intel Mac OS X 10_15_7) AppleWebKit/605.1.15 (KHTML, like Gecko) Version/18.1 Safari/605.1.15",Macintosh,Safari,18.1,OS X,10_15_7,https://yad8ktrsyq.cognition.run/?sona_id=13344,"en-US,en;q=0.9",13344,81384815,applehorse2.png,l,,,TRUE,horse,geck,L,practice,,,,,,,,,,,,
,null,feedback,html-keyboard-response,166,499175,0.0-3.0-4.5,13,3,11/14/24 19:53,317c5af7758a2d1349717ca26f1b08b8,104.28.39.24,"Mozilla/5.0 (Macintosh; Intel Mac OS X 10_15_7) AppleWebKit/605.1.15 (KHTML, like Gecko) Version/18.1 Safari/605.1.15",Macintosh,Safari,18.1,OS X,10_15_7,https://yad8ktrsyq.cognition.run/?sona_id=13344,"en-US,en;q=0.9",13344,81384815,<b>Correct!</b>,null,,,,,,,,,,,,,,,,,,,
,null,fixation,html-keyboard-response,167,499480,0.0-3.0-0.6,13,3,11/14/24 19:53,317c5af7758a2d1349717ca26f1b08b8,104.28.39.24,"Mozilla/5.0 (Macintosh; Intel Mac OS X 10_15_7) AppleWebKit/605.1.15 (KHTML, like Gecko) Version/18.1 Safari/605.1.15",Macintosh,Safari,18.1,OS X,10_15_7,https://yad8ktrsyq.cognition.run/?sona_id=13344,"en-US,en;q=0.9",13344,81384815,+,null,,,,,,,,,,,,,,,,,,,
,null,image,image-keyboard-response,168,499986,0.0-3.0-1.6,13,3,11/14/24 19:53,317c5af7758a2d1349717ca26f1b08b8,104.28.39.24,"Mozilla/5.0 (Macintosh; Intel Mac OS X 10_15_7) AppleWebKit/605.1.15 (KHTML, like Gecko) Version/18.1 Safari/605.1.15",Macintosh,Safari,18.1,OS X,10_15_7,https://yad8ktrsyq.cognition.run/?sona_id=13344,"en-US,en;q=0.9",13344,81384815,applehorse2.png,null,,,,,,,,,,,,,,,,,,,
,null,prime,image-keyboard-response,169,500492,0.0-3.0-2.6,13,3,11/14/24 19:53,317c5af7758a2d1349717ca26f1b08b8,104.28.39.24,"Mozilla/5.0 (Macintosh; Intel Mac OS X 10_15_7) AppleWebKit/605.1.15 (KHTML, like Gecko) Version/18.1 Safari/605.1.15",Macintosh,Safari,18.1,OS X,10_15_7,https://yad8ktrsyq.cognition.run/?sona_id=13344,"en-US,en;q=0.9",13344,81384815,applehorse2.png,null,,,,,,,,,,,,,,,,,,,
,521,target,image-keyboard-response,170,501018,0.0-3.0-3.6,13,3,11/14/24 19:53,317c5af7758a2d1349717ca26f1b08b8,104.28.39.24,"Mozilla/5.0 (Macintosh; Intel Mac OS X 10_15_7) AppleWebKit/605.1.15 (KHTML, like Gecko) Version/18.1 Safari/605.1.15",Macintosh,Safari,18.1,OS X,10_15_7,https://yad8ktrsyq.cognition.run/?sona_id=13344,"en-US,en;q=0.9",13344,81384815,applehorse2.png,l,,,TRUE,horse,boff,L,practice,,,,,,,,,,,,
,null,feedback,html-keyboard-response,171,502023,0.0-3.0-4.6,13,3,11/14/24 19:53,317c5af7758a2d1349717ca26f1b08b8,104.28.39.24,"Mozilla/5.0 (Macintosh; Intel Mac OS X 10_15_7) AppleWebKit/605.1.15 (KHTML, like Gecko) Version/18.1 Safari/605.1.15",Macintosh,Safari,18.1,OS X,10_15_7,https://yad8ktrsyq.cognition.run/?sona_id=13344,"en-US,en;q=0.9",13344,81384815,<b>Correct!</b>,null,,,,,,,,,,,,,,,,,,,
,null,fixation,html-keyboard-response,172,502328,0.0-3.0-0.7,13,3,11/14/24 19:53,317c5af7758a2d1349717ca26f1b08b8,104.28.39.24,"Mozilla/5.0 (Macintosh; Intel Mac OS X 10_15_7) AppleWebKit/605.1.15 (KHTML, like Gecko) Version/18.1 Safari/605.1.15",Macintosh,Safari,18.1,OS X,10_15_7,https://yad8ktrsyq.cognition.run/?sona_id=13344,"en-US,en;q=0.9",13344,81384815,+,null,,,,,,,,,,,,,,,,,,,
,null,image,image-keyboard-response,173,502834,0.0-3.0-1.7,13,3,11/14/24 19:53,317c5af7758a2d1349717ca26f1b08b8,104.28.39.24,"Mozilla/5.0 (Macintosh; Intel Mac OS X 10_15_7) AppleWebKit/605.1.15 (KHTML, like Gecko) Version/18.1 Safari/605.1.15",Macintosh,Safari,18.1,OS X,10_15_7,https://yad8ktrsyq.cognition.run/?sona_id=13344,"en-US,en;q=0.9",13344,81384815,horseapple2.png,null,,,,,,,,,,,,,,,,,,,
,null,prime,image-keyboard-response,174,503340,0.0-3.0-2.7,13,3,11/14/24 19:53,317c5af7758a2d1349717ca26f1b08b8,104.28.39.24,"Mozilla/5.0 (Macintosh; Intel Mac OS X 10_15_7) AppleWebKit/605.1.15 (KHTML, like Gecko) Version/18.1 Safari/605.1.15",Macintosh,Safari,18.1,OS X,10_15_7,https://yad8ktrsyq.cognition.run/?sona_id=13344,"en-US,en;q=0.9",13344,81384815,horseapple2.png,null,,,,,,,,,,,,,,,,,,,
,626,target,image-keyboard-response,175,503972,0.0-3.0-3.7,13,3,11/14/24 19:53,317c5af7758a2d1349717ca26f1b08b8,104.28.39.24,"Mozilla/5.0 (Macintosh; Intel Mac OS X 10_15_7) AppleWebKit/605.1.15 (KHTML, like Gecko) Version/18.1 Safari/605.1.15",Macintosh,Safari,18.1,OS X,10_15_7,https://yad8ktrsyq.cognition.run/?sona_id=13344,"en-US,en;q=0.9",13344,81384815,horseapple2.png,l,,,TRUE,apple,mipp,L,practice,,,,,,,,,,,,
,null,feedback,html-keyboard-response,176,504977,0.0-3.0-4.7,13,3,11/14/24 19:53,317c5af7758a2d1349717ca26f1b08b8,104.28.39.24,"Mozilla/5.0 (Macintosh; Intel Mac OS X 10_15_7) AppleWebKit/605.1.15 (KHTML, like Gecko) Version/18.1 Safari/605.1.15",Macintosh,Safari,18.1,OS X,10_15_7,https://yad8ktrsyq.cognition.run/?sona_id=13344,"en-US,en;q=0.9",13344,81384815,<b>Correct!</b>,null,,,,,,,,,,,,,,,,,,,
,null,fixation,html-keyboard-response,177,505282,0.0-3.0-0.8,13,3,11/14/24 19:53,317c5af7758a2d1349717ca26f1b08b8,104.28.39.24,"Mozilla/5.0 (Macintosh; Intel Mac OS X 10_15_7) AppleWebKit/605.1.15 (KHTML, like Gecko) Version/18.1 Safari/605.1.15",Macintosh,Safari,18.1,OS X,10_15_7,https://yad8ktrsyq.cognition.run/?sona_id=13344,"en-US,en;q=0.9",13344,81384815,+,null,,,,,,,,,,,,,,,,,,,
,null,image,image-keyboard-response,178,505788,0.0-3.0-1.8,13,3,11/14/24 19:53,317c5af7758a2d1349717ca26f1b08b8,104.28.39.24,"Mozilla/5.0 (Macintosh; Intel Mac OS X 10_15_7) AppleWebKit/605.1.15 (KHTML, like Gecko) Version/18.1 Safari/605.1.15",Macintosh,Safari,18.1,OS X,10_15_7,https://yad8ktrsyq.cognition.run/?sona_id=13344,"en-US,en;q=0.9",13344,81384815,applehorse2.png,null,,,,,,,,,,,,,,,,,,,
,null,prime,image-keyboard-response,179,506294,0.0-3.0-2.8,13,3,11/14/24 19:53,317c5af7758a2d1349717ca26f1b08b8,104.28.39.24,"Mozilla/5.0 (Macintosh; Intel Mac OS X 10_15_7) AppleWebKit/605.1.15 (KHTML, like Gecko) Version/18.1 Safari/605.1.15",Macintosh,Safari,18.1,OS X,10_15_7,https://yad8ktrsyq.cognition.run/?sona_id=13344,"en-US,en;q=0.9",13344,81384815,applehorse2.png,null,,,,,,,,,,,,,,,,,,,
,467,target,image-keyboard-response,180,506767,0.0-3.0-3.8,13,3,11/14/24 19:53,317c5af7758a2d1349717ca26f1b08b8,104.28.39.24,"Mozilla/5.0 (Macintosh; Intel Mac OS X 10_15_7) AppleWebKit/605.1.15 (KHTML, like Gecko) Version/18.1 Safari/605.1.15",Macintosh,Safari,18.1,OS X,10_15_7,https://yad8ktrsyq.cognition.run/?sona_id=13344,"en-US,en;q=0.9",13344,81384815,applehorse2.png,l,,,TRUE,horse,mipp,L,practice,,,,,,,,,,,,
,null,feedback,html-keyboard-response,181,507772,0.0-3.0-4.8,13,3,11/14/24 19:53,317c5af7758a2d1349717ca26f1b08b8,104.28.39.24,"Mozilla/5.0 (Macintosh; Intel Mac OS X 10_15_7) AppleWebKit/605.1.15 (KHTML, like Gecko) Version/18.1 Safari/605.1.15",Macintosh,Safari,18.1,OS X,10_15_7,https://yad8ktrsyq.cognition.run/?sona_id=13344,"en-US,en;q=0.9",13344,81384815,<b>Correct!</b>,null,,,,,,,,,,,,,,,,,,,
,null,fixation,html-keyboard-response,182,508077,0.0-4.0-0.0,13,3,11/14/24 19:53,317c5af7758a2d1349717ca26f1b08b8,104.28.39.24,"Mozilla/5.0 (Macintosh; Intel Mac OS X 10_15_7) AppleWebKit/605.1.15 (KHTML, like Gecko) Version/18.1 Safari/605.1.15",Macintosh,Safari,18.1,OS X,10_15_7,https://yad8ktrsyq.cognition.run/?sona_id=13344,"en-US,en;q=0.9",13344,81384815,+,null,,,,,,,,,,,,,,,,,,,
,null,image,image-keyboard-response,183,508584,0.0-4.0-1.0,13,3,11/14/24 19:53,317c5af7758a2d1349717ca26f1b08b8,104.28.39.24,"Mozilla/5.0 (Macintosh; Intel Mac OS X 10_15_7) AppleWebKit/605.1.15 (KHTML, like Gecko) Version/18.1 Safari/605.1.15",Macintosh,Safari,18.1,OS X,10_15_7,https://yad8ktrsyq.cognition.run/?sona_id=13344,"en-US,en;q=0.9",13344,81384815,applehorse2.png,null,,,,,,,,,,,,,,,,,,,
,null,prime,image-keyboard-response,184,509089,0.0-4.0-2.0,13,3,11/14/24 19:53,317c5af7758a2d1349717ca26f1b08b8,104.28.39.24,"Mozilla/5.0 (Macintosh; Intel Mac OS X 10_15_7) AppleWebKit/605.1.15 (KHTML, like Gecko) Version/18.1 Safari/605.1.15",Macintosh,Safari,18.1,OS X,10_15_7,https://yad8ktrsyq.cognition.run/?sona_id=13344,"en-US,en;q=0.9",13344,81384815,applehorse2.png,null,,,,,,,,,,,,,,,,,,,
,478,target,image-keyboard-response,185,509573,0.0-4.0-3.0,13,3,11/14/24 19:53,317c5af7758a2d1349717ca26f1b08b8,104.28.39.24,"Mozilla/5.0 (Macintosh; Intel Mac OS X 10_15_7) AppleWebKit/605.1.15 (KHTML, like Gecko) Version/18.1 Safari/605.1.15",Macintosh,Safari,18.1,OS X,10_15_7,https://yad8ktrsyq.cognition.run/?sona_id=13344,"en-US,en;q=0.9",13344,81384815,applehorse2.png,l,,,TRUE,horse,nuppical,L,1,,,,,,,,,,,,
,null,fixation,html-keyboard-response,186,509878,0.0-4.0-0.1,13,3,11/14/24 19:53,317c5af7758a2d1349717ca26f1b08b8,104.28.39.24,"Mozilla/5.0 (Macintosh; Intel Mac OS X 10_15_7) AppleWebKit/605.1.15 (KHTML, like Gecko) Version/18.1 Safari/605.1.15",Macintosh,Safari,18.1,OS X,10_15_7,https://yad8ktrsyq.cognition.run/?sona_id=13344,"en-US,en;q=0.9",13344,81384815,+,null,,,,,,,,,,,,,,,,,,,
,null,image,image-keyboard-response,187,510384,0.0-4.0-1.1,13,3,11/14/24 19:53,317c5af7758a2d1349717ca26f1b08b8,104.28.39.24,"Mozilla/5.0 (Macintosh; Intel Mac OS X 10_15_7) AppleWebKit/605.1.15 (KHTML, like Gecko) Version/18.1 Safari/605.1.15",Macintosh,Safari,18.1,OS X,10_15_7,https://yad8ktrsyq.cognition.run/?sona_id=13344,"en-US,en;q=0.9",13344,81384815,horseapple2.png,null,,,,,,,,,,,,,,,,,,,
,null,prime,image-keyboard-response,188,510890,0.0-4.0-2.1,13,3,11/14/24 19:53,317c5af7758a2d1349717ca26f1b08b8,104.28.39.24,"Mozilla/5.0 (Macintosh; Intel Mac OS X 10_15_7) AppleWebKit/605.1.15 (KHTML, like Gecko) Version/18.1 Safari/605.1.15",Macintosh,Safari,18.1,OS X,10_15_7,https://yad8ktrsyq.cognition.run/?sona_id=13344,"en-US,en;q=0.9",13344,81384815,horseapple2.png,null,,,,,,,,,,,,,,,,,,,
,592,target,image-keyboard-response,189,511487,0.0-4.0-3.1,13,3,11/14/24 19:53,317c5af7758a2d1349717ca26f1b08b8,104.28.39.24,"Mozilla/5.0 (Macintosh; Intel Mac OS X 10_15_7) AppleWebKit/605.1.15 (KHTML, like Gecko) Version/18.1 Safari/605.1.15",Macintosh,Safari,18.1,OS X,10_15_7,https://yad8ktrsyq.cognition.run/?sona_id=13344,"en-US,en;q=0.9",13344,81384815,horseapple2.png,a,,,TRUE,horse,nuppical,A,1,,,,,,,,,,,,
,null,fixation,html-keyboard-response,190,511792,0.0-4.0-0.2,13,3,11/14/24 19:53,317c5af7758a2d1349717ca26f1b08b8,104.28.39.24,"Mozilla/5.0 (Macintosh; Intel Mac OS X 10_15_7) AppleWebKit/605.1.15 (KHTML, like Gecko) Version/18.1 Safari/605.1.15",Macintosh,Safari,18.1,OS X,10_15_7,https://yad8ktrsyq.cognition.run/?sona_id=13344,"en-US,en;q=0.9",13344,81384815,+,null,,,,,,,,,,,,,,,,,,,
,null,image,image-keyboard-response,191,512299,0.0-4.0-1.2,13,3,11/14/24 19:53,317c5af7758a2d1349717ca26f1b08b8,104.28.39.24,"Mozilla/5.0 (Macintosh; Intel Mac OS X 10_15_7) AppleWebKit/605.1.15 (KHTML, like Gecko) Version/18.1 Safari/605.1.15",Macintosh,Safari,18.1,OS X,10_15_7,https://yad8ktrsyq.cognition.run/?sona_id=13344,"en-US,en;q=0.9",13344,81384815,applehorse2.png,null,,,,,,,,,,,,,,,,,,,
,null,prime,image-keyboard-response,192,512805,0.0-4.0-2.2,13,3,11/14/24 19:53,317c5af7758a2d1349717ca26f1b08b8,104.28.39.24,"Mozilla/5.0 (Macintosh; Intel Mac OS X 10_15_7) AppleWebKit/605.1.15 (KHTML, like Gecko) Version/18.1 Safari/605.1.15",Macintosh,Safari,18.1,OS X,10_15_7,https://yad8ktrsyq.cognition.run/?sona_id=13344,"en-US,en;q=0.9",13344,81384815,applehorse2.png,null,,,,,,,,,,,,,,,,,,,
,613,target,image-keyboard-response,193,513421,0.0-4.0-3.2,13,3,11/14/24 19:53,317c5af7758a2d1349717ca26f1b08b8,104.28.39.24,"Mozilla/5.0 (Macintosh; Intel Mac OS X 10_15_7) AppleWebKit/605.1.15 (KHTML, like Gecko) Version/18.1 Safari/605.1.15",Macintosh,Safari,18.1,OS X,10_15_7,https://yad8ktrsyq.cognition.run/?sona_id=13344,"en-US,en;q=0.9",13344,81384815,applehorse2.png,l,,,TRUE,horse,geck,L,1,,,,,,,,,,,,
,null,fixation,html-keyboard-response,194,513725,0.0-4.0-0.3,13,3,11/14/24 19:53,317c5af7758a2d1349717ca26f1b08b8,104.28.39.24,"Mozilla/5.0 (Macintosh; Intel Mac OS X 10_15_7) AppleWebKit/605.1.15 (KHTML, like Gecko) Version/18.1 Safari/605.1.15",Macintosh,Safari,18.1,OS X,10_15_7,https://yad8ktrsyq.cognition.run/?sona_id=13344,"en-US,en;q=0.9",13344,81384815,+,null,,,,,,,,,,,,,,,,,,,
,null,image,image-keyboard-response,195,514232,0.0-4.0-1.3,13,3,11/14/24 19:53,317c5af7758a2d1349717ca26f1b08b8,104.28.39.24,"Mozilla/5.0 (Macintosh; Intel Mac OS X 10_15_7) AppleWebKit/605.1.15 (KHTML, like Gecko) Version/18.1 Safari/605.1.15",Macintosh,Safari,18.1,OS X,10_15_7,https://yad8ktrsyq.cognition.run/?sona_id=13344,"en-US,en;q=0.9",13344,81384815,horseapple2.png,null,,,,,,,,,,,,,,,,,,,
,null,prime,image-keyboard-response,196,514737,0.0-4.0-2.3,13,3,11/14/24 19:53,317c5af7758a2d1349717ca26f1b08b8,104.28.39.24,"Mozilla/5.0 (Macintosh; Intel Mac OS X 10_15_7) AppleWebKit/605.1.15 (KHTML, like Gecko) Version/18.1 Safari/605.1.15",Macintosh,Safari,18.1,OS X,10_15_7,https://yad8ktrsyq.cognition.run/?sona_id=13344,"en-US,en;q=0.9",13344,81384815,horseapple2.png,null,,,,,,,,,,,,,,,,,,,
,580,target,image-keyboard-response,197,515323,0.0-4.0-3.3,13,3,11/14/24 19:53,317c5af7758a2d1349717ca26f1b08b8,104.28.39.24,"Mozilla/5.0 (Macintosh; Intel Mac OS X 10_15_7) AppleWebKit/605.1.15 (KHTML, like Gecko) Version/18.1 Safari/605.1.15",Macintosh,Safari,18.1,OS X,10_15_7,https://yad8ktrsyq.cognition.run/?sona_id=13344,"en-US,en;q=0.9",13344,81384815,horseapple2.png,l,,,FALSE,horse,nuppical,A,1,,,,,,,,,,,,
,null,fixation,html-keyboard-response,198,515628,0.0-4.0-0.4,13,3,11/14/24 19:53,317c5af7758a2d1349717ca26f1b08b8,104.28.39.24,"Mozilla/5.0 (Macintosh; Intel Mac OS X 10_15_7) AppleWebKit/605.1.15 (KHTML, like Gecko) Version/18.1 Safari/605.1.15",Macintosh,Safari,18.1,OS X,10_15_7,https://yad8ktrsyq.cognition.run/?sona_id=13344,"en-US,en;q=0.9",13344,81384815,+,null,,,,,,,,,,,,,,,,,,,
,null,image,image-keyboard-response,199,516133,0.0-4.0-1.4,13,3,11/14/24 19:53,317c5af7758a2d1349717ca26f1b08b8,104.28.39.24,"Mozilla/5.0 (Macintosh; Intel Mac OS X 10_15_7) AppleWebKit/605.1.15 (KHTML, like Gecko) Version/18.1 Safari/605.1.15",Macintosh,Safari,18.1,OS X,10_15_7,https://yad8ktrsyq.cognition.run/?sona_id=13344,"en-US,en;q=0.9",13344,81384815,horseapple2.png,null,,,,,,,,,,,,,,,,,,,
,null,prime,image-keyboard-response,200,516639,0.0-4.0-2.4,13,3,11/14/24 19:53,317c5af7758a2d1349717ca26f1b08b8,104.28.39.24,"Mozilla/5.0 (Macintosh; Intel Mac OS X 10_15_7) AppleWebKit/605.1.15 (KHTML, like Gecko) Version/18.1 Safari/605.1.15",Macintosh,Safari,18.1,OS X,10_15_7,https://yad8ktrsyq.cognition.run/?sona_id=13344,"en-US,en;q=0.9",13344,81384815,horseapple2.png,null,,,,,,,,,,,,,,,,,,,
,494,target,image-keyboard-response,201,517139,0.0-4.0-3.4,13,3,11/14/24 19:53,317c5af7758a2d1349717ca26f1b08b8,104.28.39.24,"Mozilla/5.0 (Macintosh; Intel Mac OS X 10_15_7) AppleWebKit/605.1.15 (KHTML, like Gecko) Version/18.1 Safari/605.1.15",Macintosh,Safari,18.1,OS X,10_15_7,https://yad8ktrsyq.cognition.run/?sona_id=13344,"en-US,en;q=0.9",13344,81384815,horseapple2.png,l,,,TRUE,apple,boff,L,1,,,,,,,,,,,,
,null,fixation,html-keyboard-response,202,517444,0.0-4.0-0.5,13,3,11/14/24 19:53,317c5af7758a2d1349717ca26f1b08b8,104.28.39.24,"Mozilla/5.0 (Macintosh; Intel Mac OS X 10_15_7) AppleWebKit/605.1.15 (KHTML, like Gecko) Version/18.1 Safari/605.1.15",Macintosh,Safari,18.1,OS X,10_15_7,https://yad8ktrsyq.cognition.run/?sona_id=13344,"en-US,en;q=0.9",13344,81384815,+,null,,,,,,,,,,,,,,,,,,,
,null,image,image-keyboard-response,203,517949,0.0-4.0-1.5,13,3,11/14/24 19:53,317c5af7758a2d1349717ca26f1b08b8,104.28.39.24,"Mozilla/5.0 (Macintosh; Intel Mac OS X 10_15_7) AppleWebKit/605.1.15 (KHTML, like Gecko) Version/18.1 Safari/605.1.15",Macintosh,Safari,18.1,OS X,10_15_7,https://yad8ktrsyq.cognition.run/?sona_id=13344,"en-US,en;q=0.9",13344,81384815,applehorse2.png,null,,,,,,,,,,,,,,,,,,,
,null,prime,image-keyboard-response,204,518456,0.0-4.0-2.5,13,3,11/14/24 19:53,317c5af7758a2d1349717ca26f1b08b8,104.28.39.24,"Mozilla/5.0 (Macintosh; Intel Mac OS X 10_15_7) AppleWebKit/605.1.15 (KHTML, like Gecko) Version/18.1 Safari/605.1.15",Macintosh,Safari,18.1,OS X,10_15_7,https://yad8ktrsyq.cognition.run/?sona_id=13344,"en-US,en;q=0.9",13344,81384815,applehorse2.png,null,,,,,,,,,,,,,,,,,,,
,468,target,image-keyboard-response,205,518927,0.0-4.0-3.5,13,3,11/14/24 19:53,317c5af7758a2d1349717ca26f1b08b8,104.28.39.24,"Mozilla/5.0 (Macintosh; Intel Mac OS X 10_15_7) AppleWebKit/605.1.15 (KHTML, like Gecko) Version/18.1 Safari/605.1.15",Macintosh,Safari,18.1,OS X,10_15_7,https://yad8ktrsyq.cognition.run/?sona_id=13344,"en-US,en;q=0.9",13344,81384815,applehorse2.png,a,,,FALSE,horse,nuppical,L,1,,,,,,,,,,,,
,null,fixation,html-keyboard-response,206,519233,0.0-4.0-0.6,13,3,11/14/24 19:53,317c5af7758a2d1349717ca26f1b08b8,104.28.39.24,"Mozilla/5.0 (Macintosh; Intel Mac OS X 10_15_7) AppleWebKit/605.1.15 (KHTML, like Gecko) Version/18.1 Safari/605.1.15",Macintosh,Safari,18.1,OS X,10_15_7,https://yad8ktrsyq.cognition.run/?sona_id=13344,"en-US,en;q=0.9",13344,81384815,+,null,,,,,,,,,,,,,,,,,,,
,null,image,image-keyboard-response,207,519738,0.0-4.0-1.6,13,3,11/14/24 19:53,317c5af7758a2d1349717ca26f1b08b8,104.28.39.24,"Mozilla/5.0 (Macintosh; Intel Mac OS X 10_15_7) AppleWebKit/605.1.15 (KHTML, like Gecko) Version/18.1 Safari/605.1.15",Macintosh,Safari,18.1,OS X,10_15_7,https://yad8ktrsyq.cognition.run/?sona_id=13344,"en-US,en;q=0.9",13344,81384815,horseapple2.png,null,,,,,,,,,,,,,,,,,,,
,null,prime,image-keyboard-response,208,520244,0.0-4.0-2.6,13,3,11/14/24 19:53,317c5af7758a2d1349717ca26f1b08b8,104.28.39.24,"Mozilla/5.0 (Macintosh; Intel Mac OS X 10_15_7) AppleWebKit/605.1.15 (KHTML, like Gecko) Version/18.1 Safari/605.1.15",Macintosh,Safari,18.1,OS X,10_15_7,https://yad8ktrsyq.cognition.run/?sona_id=13344,"en-US,en;q=0.9",13344,81384815,horseapple2.png,null,,,,,,,,,,,,,,,,,,,
,415,target,image-keyboard-response,209,520665,0.0-4.0-3.6,13,3,11/14/24 19:53,317c5af7758a2d1349717ca26f1b08b8,104.28.39.24,"Mozilla/5.0 (Macintosh; Intel Mac OS X 10_15_7) AppleWebKit/605.1.15 (KHTML, like Gecko) Version/18.1 Safari/605.1.15",Macintosh,Safari,18.1,OS X,10_15_7,https://yad8ktrsyq.cognition.run/?sona_id=13344,"en-US,en;q=0.9",13344,81384815,horseapple2.png,a,,,FALSE,apple,geck,L,1,,,,,,,,,,,,
,null,fixation,html-keyboard-response,210,520970,0.0-4.0-0.7,13,3,11/14/24 19:53,317c5af7758a2d1349717ca26f1b08b8,104.28.39.24,"Mozilla/5.0 (Macintosh; Intel Mac OS X 10_15_7) AppleWebKit/605.1.15 (KHTML, like Gecko) Version/18.1 Safari/605.1.15",Macintosh,Safari,18.1,OS X,10_15_7,https://yad8ktrsyq.cognition.run/?sona_id=13344,"en-US,en;q=0.9",13344,81384815,+,null,,,,,,,,,,,,,,,,,,,
,null,image,image-keyboard-response,211,521476,0.0-4.0-1.7,13,3,11/14/24 19:53,317c5af7758a2d1349717ca26f1b08b8,104.28.39.24,"Mozilla/5.0 (Macintosh; Intel Mac OS X 10_15_7) AppleWebKit/605.1.15 (KHTML, like Gecko) Version/18.1 Safari/605.1.15",Macintosh,Safari,18.1,OS X,10_15_7,https://yad8ktrsyq.cognition.run/?sona_id=13344,"en-US,en;q=0.9",13344,81384815,horseapple2.png,null,,,,,,,,,,,,,,,,,,,
,null,prime,image-keyboard-response,212,521983,0.0-4.0-2.7,13,3,11/14/24 19:53,317c5af7758a2d1349717ca26f1b08b8,104.28.39.24,"Mozilla/5.0 (Macintosh; Intel Mac OS X 10_15_7) AppleWebKit/605.1.15 (KHTML, like Gecko) Version/18.1 Safari/605.1.15",Macintosh,Safari,18.1,OS X,10_15_7,https://yad8ktrsyq.cognition.run/?sona_id=13344,"en-US,en;q=0.9",13344,81384815,horseapple2.png,null,,,,,,,,,,,,,,,,,,,
,510,target,image-keyboard-response,213,522497,0.0-4.0-3.7,13,3,11/14/24 19:53,317c5af7758a2d1349717ca26f1b08b8,104.28.39.24,"Mozilla/5.0 (Macintosh; Intel Mac OS X 10_15_7) AppleWebKit/605.1.15 (KHTML, like Gecko) Version/18.1 Safari/605.1.15",Macintosh,Safari,18.1,OS X,10_15_7,https://yad8ktrsyq.cognition.run/?sona_id=13344,"en-US,en;q=0.9",13344,81384815,horseapple2.png,l,,,TRUE,apple,mipp,L,1,,,,,,,,,,,,
,null,fixation,html-keyboard-response,214,522802,0.0-4.0-0.8,13,3,11/14/24 19:53,317c5af7758a2d1349717ca26f1b08b8,104.28.39.24,"Mozilla/5.0 (Macintosh; Intel Mac OS X 10_15_7) AppleWebKit/605.1.15 (KHTML, like Gecko) Version/18.1 Safari/605.1.15",Macintosh,Safari,18.1,OS X,10_15_7,https://yad8ktrsyq.cognition.run/?sona_id=13344,"en-US,en;q=0.9",13344,81384815,+,null,,,,,,,,,,,,,,,,,,,
,null,image,image-keyboard-response,215,523308,0.0-4.0-1.8,13,3,11/14/24 19:53,317c5af7758a2d1349717ca26f1b08b8,104.28.39.24,"Mozilla/5.0 (Macintosh; Intel Mac OS X 10_15_7) AppleWebKit/605.1.15 (KHTML, like Gecko) Version/18.1 Safari/605.1.15",Macintosh,Safari,18.1,OS X,10_15_7,https://yad8ktrsyq.cognition.run/?sona_id=13344,"en-US,en;q=0.9",13344,81384815,horseapple2.png,null,,,,,,,,,,,,,,,,,,,
,null,prime,image-keyboard-response,216,523814,0.0-4.0-2.8,13,3,11/14/24 19:53,317c5af7758a2d1349717ca26f1b08b8,104.28.39.24,"Mozilla/5.0 (Macintosh; Intel Mac OS X 10_15_7) AppleWebKit/605.1.15 (KHTML, like Gecko) Version/18.1 Safari/605.1.15",Macintosh,Safari,18.1,OS X,10_15_7,https://yad8ktrsyq.cognition.run/?sona_id=13344,"en-US,en;q=0.9",13344,81384815,horseapple2.png,null,,,,,,,,,,,,,,,,,,,
,406,target,image-keyboard-response,217,524225,0.0-4.0-3.8,13,3,11/14/24 19:53,317c5af7758a2d1349717ca26f1b08b8,104.28.39.24,"Mozilla/5.0 (Macintosh; Intel Mac OS X 10_15_7) AppleWebKit/605.1.15 (KHTML, like Gecko) Version/18.1 Safari/605.1.15",Macintosh,Safari,18.1,OS X,10_15_7,https://yad8ktrsyq.cognition.run/?sona_id=13344,"en-US,en;q=0.9",13344,81384815,horseapple2.png,a,,,TRUE,horse,dodish,A,1,,,,,,,,,,,,
,null,fixation,html-keyboard-response,218,524532,0.0-4.0-0.9,13,3,11/14/24 19:53,317c5af7758a2d1349717ca26f1b08b8,104.28.39.24,"Mozilla/5.0 (Macintosh; Intel Mac OS X 10_15_7) AppleWebKit/605.1.15 (KHTML, like Gecko) Version/18.1 Safari/605.1.15",Macintosh,Safari,18.1,OS X,10_15_7,https://yad8ktrsyq.cognition.run/?sona_id=13344,"en-US,en;q=0.9",13344,81384815,+,null,,,,,,,,,,,,,,,,,,,
,null,image,image-keyboard-response,219,525038,0.0-4.0-1.9,13,3,11/14/24 19:53,317c5af7758a2d1349717ca26f1b08b8,104.28.39.24,"Mozilla/5.0 (Macintosh; Intel Mac OS X 10_15_7) AppleWebKit/605.1.15 (KHTML, like Gecko) Version/18.1 Safari/605.1.15",Macintosh,Safari,18.1,OS X,10_15_7,https://yad8ktrsyq.cognition.run/?sona_id=13344,"en-US,en;q=0.9",13344,81384815,applehorse2.png,null,,,,,,,,,,,,,,,,,,,
,null,prime,image-keyboard-response,220,525543,0.0-4.0-2.9,13,3,11/14/24 19:53,317c5af7758a2d1349717ca26f1b08b8,104.28.39.24,"Mozilla/5.0 (Macintosh; Intel Mac OS X 10_15_7) AppleWebKit/605.1.15 (KHTML, like Gecko) Version/18.1 Safari/605.1.15",Macintosh,Safari,18.1,OS X,10_15_7,https://yad8ktrsyq.cognition.run/?sona_id=13344,"en-US,en;q=0.9",13344,81384815,applehorse2.png,null,,,,,,,,,,,,,,,,,,,
,483,target,image-keyboard-response,221,526031,0.0-4.0-3.9,13,3,11/14/24 19:53,317c5af7758a2d1349717ca26f1b08b8,104.28.39.24,"Mozilla/5.0 (Macintosh; Intel Mac OS X 10_15_7) AppleWebKit/605.1.15 (KHTML, like Gecko) Version/18.1 Safari/605.1.15",Macintosh,Safari,18.1,OS X,10_15_7,https://yad8ktrsyq.cognition.run/?sona_id=13344,"en-US,en;q=0.9",13344,81384815,applehorse2.png,a,,,TRUE,apple,dodish,A,1,,,,,,,,,,,,
,null,fixation,html-keyboard-response,222,526337,0.0-4.0-0.10,13,3,11/14/24 19:53,317c5af7758a2d1349717ca26f1b08b8,104.28.39.24,"Mozilla/5.0 (Macintosh; Intel Mac OS X 10_15_7) AppleWebKit/605.1.15 (KHTML, like Gecko) Version/18.1 Safari/605.1.15",Macintosh,Safari,18.1,OS X,10_15_7,https://yad8ktrsyq.cognition.run/?sona_id=13344,"en-US,en;q=0.9",13344,81384815,+,null,,,,,,,,,,,,,,,,,,,
,null,image,image-keyboard-response,223,526842,0.0-4.0-1.10,13,3,11/14/24 19:53,317c5af7758a2d1349717ca26f1b08b8,104.28.39.24,"Mozilla/5.0 (Macintosh; Intel Mac OS X 10_15_7) AppleWebKit/605.1.15 (KHTML, like Gecko) Version/18.1 Safari/605.1.15",Macintosh,Safari,18.1,OS X,10_15_7,https://yad8ktrsyq.cognition.run/?sona_id=13344,"en-US,en;q=0.9",13344,81384815,horseapple2.png,null,,,,,,,,,,,,,,,,,,,
,null,prime,image-keyboard-response,224,527349,0.0-4.0-2.10,13,3,11/14/24 19:53,317c5af7758a2d1349717ca26f1b08b8,104.28.39.24,"Mozilla/5.0 (Macintosh; Intel Mac OS X 10_15_7) AppleWebKit/605.1.15 (KHTML, like Gecko) Version/18.1 Safari/605.1.15",Macintosh,Safari,18.1,OS X,10_15_7,https://yad8ktrsyq.cognition.run/?sona_id=13344,"en-US,en;q=0.9",13344,81384815,horseapple2.png,null,,,,,,,,,,,,,,,,,,,
,505,target,image-keyboard-response,225,527860,0.0-4.0-3.10,13,3,11/14/24 19:53,317c5af7758a2d1349717ca26f1b08b8,104.28.39.24,"Mozilla/5.0 (Macintosh; Intel Mac OS X 10_15_7) AppleWebKit/605.1.15 (KHTML, like Gecko) Version/18.1 Safari/605.1.15",Macintosh,Safari,18.1,OS X,10_15_7,https://yad8ktrsyq.cognition.run/?sona_id=13344,"en-US,en;q=0.9",13344,81384815,horseapple2.png,a,,,TRUE,horse,mipp,A,1,,,,,,,,,,,,
,null,fixation,html-keyboard-response,226,528165,0.0-4.0-0.11,13,3,11/14/24 19:53,317c5af7758a2d1349717ca26f1b08b8,104.28.39.24,"Mozilla/5.0 (Macintosh; Intel Mac OS X 10_15_7) AppleWebKit/605.1.15 (KHTML, like Gecko) Version/18.1 Safari/605.1.15",Macintosh,Safari,18.1,OS X,10_15_7,https://yad8ktrsyq.cognition.run/?sona_id=13344,"en-US,en;q=0.9",13344,81384815,+,null,,,,,,,,,,,,,,,,,,,
,null,image,image-keyboard-response,227,528672,0.0-4.0-1.11,13,3,11/14/24 19:53,317c5af7758a2d1349717ca26f1b08b8,104.28.39.24,"Mozilla/5.0 (Macintosh; Intel Mac OS X 10_15_7) AppleWebKit/605.1.15 (KHTML, like Gecko) Version/18.1 Safari/605.1.15",Macintosh,Safari,18.1,OS X,10_15_7,https://yad8ktrsyq.cognition.run/?sona_id=13344,"en-US,en;q=0.9",13344,81384815,applehorse2.png,null,,,,,,,,,,,,,,,,,,,
,null,prime,image-keyboard-response,228,529178,0.0-4.0-2.11,13,3,11/14/24 19:53,317c5af7758a2d1349717ca26f1b08b8,104.28.39.24,"Mozilla/5.0 (Macintosh; Intel Mac OS X 10_15_7) AppleWebKit/605.1.15 (KHTML, like Gecko) Version/18.1 Safari/605.1.15",Macintosh,Safari,18.1,OS X,10_15_7,https://yad8ktrsyq.cognition.run/?sona_id=13344,"en-US,en;q=0.9",13344,81384815,applehorse2.png,null,,,,,,,,,,,,,,,,,,,
,684,target,image-keyboard-response,229,529868,0.0-4.0-3.11,13,3,11/14/24 19:53,317c5af7758a2d1349717ca26f1b08b8,104.28.39.24,"Mozilla/5.0 (Macintosh; Intel Mac OS X 10_15_7) AppleWebKit/605.1.15 (KHTML, like Gecko) Version/18.1 Safari/605.1.15",Macintosh,Safari,18.1,OS X,10_15_7,https://yad8ktrsyq.cognition.run/?sona_id=13344,"en-US,en;q=0.9",13344,81384815,applehorse2.png,l,,,TRUE,horse,foobly,L,1,,,,,,,,,,,,
,null,fixation,html-keyboard-response,230,530173,0.0-4.0-0.12,13,3,11/14/24 19:53,317c5af7758a2d1349717ca26f1b08b8,104.28.39.24,"Mozilla/5.0 (Macintosh; Intel Mac OS X 10_15_7) AppleWebKit/605.1.15 (KHTML, like Gecko) Version/18.1 Safari/605.1.15",Macintosh,Safari,18.1,OS X,10_15_7,https://yad8ktrsyq.cognition.run/?sona_id=13344,"en-US,en;q=0.9",13344,81384815,+,null,,,,,,,,,,,,,,,,,,,
,null,image,image-keyboard-response,231,530680,0.0-4.0-1.12,13,3,11/14/24 19:53,317c5af7758a2d1349717ca26f1b08b8,104.28.39.24,"Mozilla/5.0 (Macintosh; Intel Mac OS X 10_15_7) AppleWebKit/605.1.15 (KHTML, like Gecko) Version/18.1 Safari/605.1.15",Macintosh,Safari,18.1,OS X,10_15_7,https://yad8ktrsyq.cognition.run/?sona_id=13344,"en-US,en;q=0.9",13344,81384815,applehorse2.png,null,,,,,,,,,,,,,,,,,,,
,null,prime,image-keyboard-response,232,531186,0.0-4.0-2.12,13,3,11/14/24 19:53,317c5af7758a2d1349717ca26f1b08b8,104.28.39.24,"Mozilla/5.0 (Macintosh; Intel Mac OS X 10_15_7) AppleWebKit/605.1.15 (KHTML, like Gecko) Version/18.1 Safari/605.1.15",Macintosh,Safari,18.1,OS X,10_15_7,https://yad8ktrsyq.cognition.run/?sona_id=13344,"en-US,en;q=0.9",13344,81384815,applehorse2.png,null,,,,,,,,,,,,,,,,,,,
,482,target,image-keyboard-response,233,531674,0.0-4.0-3.12,13,3,11/14/24 19:53,317c5af7758a2d1349717ca26f1b08b8,104.28.39.24,"Mozilla/5.0 (Macintosh; Intel Mac OS X 10_15_7) AppleWebKit/605.1.15 (KHTML, like Gecko) Version/18.1 Safari/605.1.15",Macintosh,Safari,18.1,OS X,10_15_7,https://yad8ktrsyq.cognition.run/?sona_id=13344,"en-US,en;q=0.9",13344,81384815,applehorse2.png,a,,,TRUE,apple,boff,A,1,,,,,,,,,,,,
,null,fixation,html-keyboard-response,234,531980,0.0-4.0-0.13,13,3,11/14/24 19:53,317c5af7758a2d1349717ca26f1b08b8,104.28.39.24,"Mozilla/5.0 (Macintosh; Intel Mac OS X 10_15_7) AppleWebKit/605.1.15 (KHTML, like Gecko) Version/18.1 Safari/605.1.15",Macintosh,Safari,18.1,OS X,10_15_7,https://yad8ktrsyq.cognition.run/?sona_id=13344,"en-US,en;q=0.9",13344,81384815,+,null,,,,,,,,,,,,,,,,,,,
